mouse_intro.x,mouse_intro.y,mouse_intro.leftButton,mouse_intro.midButton,mouse_intro.rightButton,mouse_intro.clicked_name,mouse_intro_2.x,mouse_intro_2.y,mouse_intro_2.leftButton,mouse_intro_2.midButton,mouse_intro_2.rightButton,mouse_intro_2.clicked_name,mouse_intro_prueba.x,mouse_intro_prueba.y,mouse_intro_prueba.leftButton,mouse_intro_prueba.midButton,mouse_intro_prueba.rightButton,mouse_intro_prueba.clicked_name,slider_prueba.response,slider_prueba.rt,slider_prueba_2.response,slider_prueba_2.rt,mouse_intro_exp.x,mouse_intro_exp.y,mouse_intro_exp.leftButton,mouse_intro_exp.midButton,mouse_intro_exp.rightButton,mouse_intro_exp.clicked_name,mouse_subasta1.x,mouse_subasta1.y,mouse_subasta1.leftButton,mouse_subasta1.midButton,mouse_subasta1.rightButton,mouse_subasta1.clicked_name,mouse_subasta2.x,mouse_subasta2.y,mouse_subasta2.leftButton,mouse_subasta2.midButton,mouse_subasta2.rightButton,mouse_subasta2.clicked_name,slider_exp.response,slider_exp.rt,trials_2.thisRepN,trials_2.thisTrialN,trials_2.thisN,trials_2.thisIndex,trials_2.ran,Imagenes,Random,Correcto,participant,date,expName,psychopyVersion,OS,frameRate,trials.thisRepN,trials.thisTrialN,trials.thisN,trials.thisIndex,trials.ran,Hertz,volumen,mouse_pago1_2.x,mouse_pago1_2.y,mouse_pago1_2.leftButton,mouse_pago1_2.midButton,mouse_pago1_2.rightButton,mouse_pago1_2.clicked_name,mouse_pago1.x,mouse_pago1.y,mouse_pago1.leftButton,mouse_pago1.midButton,mouse_pago1.rightButton,mouse_pago1.clicked_name,product,mouse_pago2.x,mouse_pago2.y,mouse_pago2.leftButton,mouse_pago2.midButton,mouse_pago2.rightButton,mouse_pago2.clicked_name,mouse_producto.x,mouse_producto.y,mouse_producto.leftButton,mouse_producto.midButton,mouse_producto.rightButton,mouse_producto.clicked_name,mensaje,mouse_pago3.x,mouse_pago3.y,mouse_pago3.leftButton,mouse_pago3.midButton,mouse_pago3.rightButton,mouse_pago3.clicked_name,mouse_intro_encuesta.x,mouse_intro_encuesta.y,mouse_intro_encuesta.leftButton,mouse_intro_encuesta.midButton,mouse_intro_encuesta.rightButton,mouse_intro_encuesta.clicked_name
0.705555556,-0.371111111,1,0,0,boton_intro,0.705555556,-0.371111111,1,0,0,boton_intro_2,0.695555556,-0.37,1,0,0,boton_intro_prueba,1.977777778,8.7307,2.944444444,7.384,0.694444444,-0.34,1,0,0,boton_intro_exp,0.647777778,-0.352222222,1,0,0,boton_subasta1,0.668888889,-0.385555556,1,0,0,boton_subasta2,3.011111111,15.2774,0,0,0,4,1,imagenes/Manzana.jpg,0.94520003,,1000077902,2022-05-06_14h12.55.614,piloto2,2020.2.5,Win32,60,,,,,,,,,,,,,,,,,,,,,,,,,,,,,,,,,,,,,,,,,,,,,
,,,,,,,,,,,,,,,,,,,,,,,,,,,,,,,,,,,,,,,,2.027777778,13.4377,0,1,1,1,1,imagenes/Brownie.jpg,0.814527559,,1000077902,2022-05-06_14h12.55.614,piloto2,2020.2.5,Win32,60,,,,,,,,,,,,,,,,,,,,,,,,,,,,,,,,,,,,,,,,,,,,,
,,,,,,,,,,,,,,,,,,,,,,,,,,,,,,,,,,,,,,,,1,7.8115,0,2,2,6,1,imagenes/Pizzetas.png,0.306756338,,1000077902,2022-05-06_14h12.55.614,piloto2,2020.2.5,Win32,60,,,,,,,,,,,,,,,,,,,,,,,,,,,,,,,,,,,,,,,,,,,,,
,,,,,,,,,,,,,,,,,,,,,,,,,,,,,,,,,,,,,,,,3.916666667,18.8181,0,3,3,7,1,imagenes/salchicha hojaldrada.jpg,0.175267701,,1000077902,2022-05-06_14h12.55.614,piloto2,2020.2.5,Win32,60,,,,,,,,,,,,,,,,,,,,,,,,,,,,,,,,,,,,,,,,,,,,,
,,,,,,,,,,,,,,,,,,,,,,,,,,,,,,,,,,,,,,,,2.055555556,7.6174,0,4,4,0,1,imagenes/Banano.jpeg,0.141149019,,1000077902,2022-05-06_14h12.55.614,piloto2,2020.2.5,Win32,60,,,,,,,,,,,,,,,,,,,,,,,,,,,,,,,,,,,,,,,,,,,,,
,,,,,,,,,,,,,,,,,,,,,,,,,,,,,,,,,,,,,,,,1.016666667,6.8204,0,5,5,8,1,imagenes/Uvas.jpg,0.693808302,,1000077902,2022-05-06_14h12.55.614,piloto2,2020.2.5,Win32,60,,,,,,,,,,,,,,,,,,,,,,,,,,,,,,,,,,,,,,,,,,,,,
,,,,,,,,,,,,,,,,,,,,,,,,,,,,,,,,,,,,,,,,2.994444444,7.0528,0,6,6,10,1,imagenes/Rollo.PNG,0.692746689,,1000077902,2022-05-06_14h12.55.614,piloto2,2020.2.5,Win32,60,,,,,,,,,,,,,,,,,,,,,,,,,,,,,,,,,,,,,,,,,,,,,
,,,,,,,,,,,,,,,,,,,,,,,,,,,,,,,,,,,,,,,,1,9.3214,0,7,7,5,1,imagenes/Muffin de banano.png,0.554296674,,1000077902,2022-05-06_14h12.55.614,piloto2,2020.2.5,Win32,60,,,,,,,,,,,,,,,,,,,,,,,,,,,,,,,,,,,,,,,,,,,,,
,,,,,,,,,,,,,,,,,,,,,,,,,,,,,,,,,,,,,,,,2.972222222,6.544,0,8,8,9,1,imagenes/Arepa.PNG,0.368531521,,1000077902,2022-05-06_14h12.55.614,piloto2,2020.2.5,Win32,60,,,,,,,,,,,,,,,,,,,,,,,,,,,,,,,,,,,,,,,,,,,,,
,,,,,,,,,,,,,,,,,,,,,,,,,,,,,,,,,,,,,,,,1.955555556,9.6478,0,9,9,2,1,imagenes/Chocoramo.jfif.jpg,0.803884425,,1000077902,2022-05-06_14h12.55.614,piloto2,2020.2.5,Win32,60,,,,,,,,,,,,,,,,,,,,,,,,,,,,,,,,,,,,,,,,,,,,,
,,,,,,,,,,,,,,,,,,,,,,,,,,,,,,,,,,,,,,,,1,6.7072,0,10,10,3,1,imagenes/Croissant.jpg,0.000603317,,1000077902,2022-05-06_14h12.55.614,piloto2,2020.2.5,Win32,60,,,,,,,,,,,,,,,,,,,,,,,,,,,,,,,,,,,,,,,,,,,,,
,,,,,,,,,,,,,,,,,,,,,,,,,,,,,,,,,,,,,,,,,,,,,,,,,,1000077902,2022-05-06_14h12.55.614,piloto2,2020.2.5,Win32,60,0,0,0,3,1,1000,0,,,,,,,,,,,,,,,,,,,,,,,,,,,,,,,,,,,,,,
,,,,,,,,,,,,,,,,,,,,,,,,,,,,,,,,,,,,,,,,2.011111111,14.2491,0,0,0,2,1,imagenes/Chocoramo.jfif.jpg,0.803884425,,1000077902,2022-05-06_14h12.55.614,piloto2,2020.2.5,Win32,60,,,,,,,,,,,,,,,,,,,,,,,,,,,,,,,,,,,,,,,,,,,,,
,,,,,,,,,,,,,,,,,,,,,,,,,,,,,,,,,,,,,,,,1,5.8376,0,1,1,5,1,imagenes/Muffin de banano.png,0.554296674,,1000077902,2022-05-06_14h12.55.614,piloto2,2020.2.5,Win32,60,,,,,,,,,,,,,,,,,,,,,,,,,,,,,,,,,,,,,,,,,,,,,
,,,,,,,,,,,,,,,,,,,,,,,,,,,,,,,,,,,,,,,,1.005555556,6.4977,0,2,2,10,1,imagenes/Rollo.PNG,0.692746689,,1000077902,2022-05-06_14h12.55.614,piloto2,2020.2.5,Win32,60,,,,,,,,,,,,,,,,,,,,,,,,,,,,,,,,,,,,,,,,,,,,,
,,,,,,,,,,,,,,,,,,,,,,,,,,,,,,,,,,,,,,,,1,8.7423,0,3,3,9,1,imagenes/Arepa.PNG,0.368531521,,1000077902,2022-05-06_14h12.55.614,piloto2,2020.2.5,Win32,60,,,,,,,,,,,,,,,,,,,,,,,,,,,,,,,,,,,,,,,,,,,,,
,,,,,,,,,,,,,,,,,,,,,,,,,,,,,,,,,,,,,,,,2.955555556,5.5058,0,4,4,1,1,imagenes/Brownie.jpg,0.814527559,,1000077902,2022-05-06_14h12.55.614,piloto2,2020.2.5,Win32,60,,,,,,,,,,,,,,,,,,,,,,,,,,,,,,,,,,,,,,,,,,,,,
,,,,,,,,,,,,,,,,,,,,,,,,,,,,,,,,,,,,,,,,1.011111111,5.0945,0,5,5,0,1,imagenes/Banano.jpeg,0.141149019,,1000077902,2022-05-06_14h12.55.614,piloto2,2020.2.5,Win32,60,,,,,,,,,,,,,,,,,,,,,,,,,,,,,,,,,,,,,,,,,,,,,
,,,,,,,,,,,,,,,,,,,,,,,,,,,,,,,,,,,,,,,,2.005555556,6.8517,0,6,6,7,1,imagenes/salchicha hojaldrada.jpg,0.175267701,,1000077902,2022-05-06_14h12.55.614,piloto2,2020.2.5,Win32,60,,,,,,,,,,,,,,,,,,,,,,,,,,,,,,,,,,,,,,,,,,,,,
,,,,,,,,,,,,,,,,,,,,,,,,,,,,,,,,,,,,,,,,1,5.7083,0,7,7,6,1,imagenes/Pizzetas.png,0.306756338,,1000077902,2022-05-06_14h12.55.614,piloto2,2020.2.5,Win32,60,,,,,,,,,,,,,,,,,,,,,,,,,,,,,,,,,,,,,,,,,,,,,
,,,,,,,,,,,,,,,,,,,,,,,,,,,,,,,,,,,,,,,,2.994444444,6.6808,0,8,8,4,1,imagenes/Manzana.jpg,0.94520003,,1000077902,2022-05-06_14h12.55.614,piloto2,2020.2.5,Win32,60,,,,,,,,,,,,,,,,,,,,,,,,,,,,,,,,,,,,,,,,,,,,,
,,,,,,,,,,,,,,,,,,,,,,,,,,,,,,,,,,,,,,,,2.033333333,9.4917,0,9,9,3,1,imagenes/Croissant.jpg,0.000603317,,1000077902,2022-05-06_14h12.55.614,piloto2,2020.2.5,Win32,60,,,,,,,,,,,,,,,,,,,,,,,,,,,,,,,,,,,,,,,,,,,,,
,,,,,,,,,,,,,,,,,,,,,,,,,,,,,,,,,,,,,,,,1,9.4351,0,10,10,8,1,imagenes/Uvas.jpg,0.693808302,,1000077902,2022-05-06_14h12.55.614,piloto2,2020.2.5,Win32,60,,,,,,,,,,,,,,,,,,,,,,,,,,,,,,,,,,,,,,,,,,,,,
,,,,,,,,,,,,,,,,,,,,,,,,,,,,,,,,,,,,,,,,,,,,,,,,,,1000077902,2022-05-06_14h12.55.614,piloto2,2020.2.5,Win32,60,0,1,1,0,1,400,0.02,,,,,,,,,,,,,,,,,,,,,,,,,,,,,,,,,,,,,,
,,,,,,,,,,,,,,,,,,,,,,,,,,,,,,,,,,,,,,,,3.027777778,4.6228,0,0,0,10,1,imagenes/Rollo.PNG,0.692746689,,1000077902,2022-05-06_14h12.55.614,piloto2,2020.2.5,Win32,60,,,,,,,,,,,,,,,,,,,,,,,,,,,,,,,,,,,,,,,,,,,,,
,,,,,,,,,,,,,,,,,,,,,,,,,,,,,,,,,,,,,,,,3.005555556,4.2911,0,1,1,4,1,imagenes/Manzana.jpg,0.94520003,,1000077902,2022-05-06_14h12.55.614,piloto2,2020.2.5,Win32,60,,,,,,,,,,,,,,,,,,,,,,,,,,,,,,,,,,,,,,,,,,,,,
,,,,,,,,,,,,,,,,,,,,,,,,,,,,,,,,,,,,,,,,1,4.4295,0,2,2,5,1,imagenes/Muffin de banano.png,0.554296674,,1000077902,2022-05-06_14h12.55.614,piloto2,2020.2.5,Win32,60,,,,,,,,,,,,,,,,,,,,,,,,,,,,,,,,,,,,,,,,,,,,,
,,,,,,,,,,,,,,,,,,,,,,,,,,,,,,,,,,,,,,,,1.011111111,9.1701,0,3,3,7,1,imagenes/salchicha hojaldrada.jpg,0.175267701,,1000077902,2022-05-06_14h12.55.614,piloto2,2020.2.5,Win32,60,,,,,,,,,,,,,,,,,,,,,,,,,,,,,,,,,,,,,,,,,,,,,
,,,,,,,,,,,,,,,,,,,,,,,,,,,,,,,,,,,,,,,,3.016666667,6.0466,0,4,4,9,1,imagenes/Arepa.PNG,0.368531521,,1000077902,2022-05-06_14h12.55.614,piloto2,2020.2.5,Win32,60,,,,,,,,,,,,,,,,,,,,,,,,,,,,,,,,,,,,,,,,,,,,,
,,,,,,,,,,,,,,,,,,,,,,,,,,,,,,,,,,,,,,,,3.044444444,5.9887,0,5,5,1,1,imagenes/Brownie.jpg,0.814527559,,1000077902,2022-05-06_14h12.55.614,piloto2,2020.2.5,Win32,60,,,,,,,,,,,,,,,,,,,,,,,,,,,,,,,,,,,,,,,,,,,,,
,,,,,,,,,,,,,,,,,,,,,,,,,,,,,,,,,,,,,,,,1.016666667,4.6247,0,6,6,6,1,imagenes/Pizzetas.png,0.306756338,,1000077902,2022-05-06_14h12.55.614,piloto2,2020.2.5,Win32,60,,,,,,,,,,,,,,,,,,,,,,,,,,,,,,,,,,,,,,,,,,,,,
,,,,,,,,,,,,,,,,,,,,,,,,,,,,,,,,,,,,,,,,4.016666667,7.3184,0,7,7,3,1,imagenes/Croissant.jpg,0.000603317,,1000077902,2022-05-06_14h12.55.614,piloto2,2020.2.5,Win32,60,,,,,,,,,,,,,,,,,,,,,,,,,,,,,,,,,,,,,,,,,,,,,
,,,,,,,,,,,,,,,,,,,,,,,,,,,,,,,,,,,,,,,,2.022222222,8.9579,0,8,8,2,1,imagenes/Chocoramo.jfif.jpg,0.803884425,,1000077902,2022-05-06_14h12.55.614,piloto2,2020.2.5,Win32,60,,,,,,,,,,,,,,,,,,,,,,,,,,,,,,,,,,,,,,,,,,,,,
,,,,,,,,,,,,,,,,,,,,,,,,,,,,,,,,,,,,,,,,1,4.9418,0,9,9,0,1,imagenes/Banano.jpeg,0.141149019,,1000077902,2022-05-06_14h12.55.614,piloto2,2020.2.5,Win32,60,,,,,,,,,,,,,,,,,,,,,,,,,,,,,,,,,,,,,,,,,,,,,
,,,,,,,,,,,,,,,,,,,,,,,,,,,,,,,,,,,,,,,,1,4.575,0,10,10,8,1,imagenes/Uvas.jpg,0.693808302,,1000077902,2022-05-06_14h12.55.614,piloto2,2020.2.5,Win32,60,,,,,,,,,,,,,,,,,,,,,,,,,,,,,,,,,,,,,,,,,,,,,
,,,,,,,,,,,,,,,,,,,,,,,,,,,,,,,,,,,,,,,,,,,,,,,,,,1000077902,2022-05-06_14h12.55.614,piloto2,2020.2.5,Win32,60,0,2,2,2,1,1000,0.02,,,,,,,,,,,,,,,,,,,,,,,,,,,,,,,,,,,,,,
,,,,,,,,,,,,,,,,,,,,,,,,,,,,,,,,,,,,,,,,3.05,10.9913,0,0,0,8,1,imagenes/Uvas.jpg,0.693808302,,1000077902,2022-05-06_14h12.55.614,piloto2,2020.2.5,Win32,60,,,,,,,,,,,,,,,,,,,,,,,,,,,,,,,,,,,,,,,,,,,,,
,,,,,,,,,,,,,,,,,,,,,,,,,,,,,,,,,,,,,,,,1,5.795,0,1,1,6,1,imagenes/Pizzetas.png,0.306756338,,1000077902,2022-05-06_14h12.55.614,piloto2,2020.2.5,Win32,60,,,,,,,,,,,,,,,,,,,,,,,,,,,,,,,,,,,,,,,,,,,,,
,,,,,,,,,,,,,,,,,,,,,,,,,,,,,,,,,,,,,,,,6,6.3713,0,2,2,2,1,imagenes/Chocoramo.jfif.jpg,0.803884425,,1000077902,2022-05-06_14h12.55.614,piloto2,2020.2.5,Win32,60,,,,,,,,,,,,,,,,,,,,,,,,,,,,,,,,,,,,,,,,,,,,,
,,,,,,,,,,,,,,,,,,,,,,,,,,,,,,,,,,,,,,,,2.961111111,4.9647,0,3,3,5,1,imagenes/Muffin de banano.png,0.554296674,,1000077902,2022-05-06_14h12.55.614,piloto2,2020.2.5,Win32,60,,,,,,,,,,,,,,,,,,,,,,,,,,,,,,,,,,,,,,,,,,,,,
,,,,,,,,,,,,,,,,,,,,,,,,,,,,,,,,,,,,,,,,2.994444444,8.9136,0,4,4,4,1,imagenes/Manzana.jpg,0.94520003,,1000077902,2022-05-06_14h12.55.614,piloto2,2020.2.5,Win32,60,,,,,,,,,,,,,,,,,,,,,,,,,,,,,,,,,,,,,,,,,,,,,
,,,,,,,,,,,,,,,,,,,,,,,,,,,,,,,,,,,,,,,,2.988888889,4.6455,0,5,5,1,1,imagenes/Brownie.jpg,0.814527559,,1000077902,2022-05-06_14h12.55.614,piloto2,2020.2.5,Win32,60,,,,,,,,,,,,,,,,,,,,,,,,,,,,,,,,,,,,,,,,,,,,,
,,,,,,,,,,,,,,,,,,,,,,,,,,,,,,,,,,,,,,,,1,5.9888,0,6,6,9,1,imagenes/Arepa.PNG,0.368531521,,1000077902,2022-05-06_14h12.55.614,piloto2,2020.2.5,Win32,60,,,,,,,,,,,,,,,,,,,,,,,,,,,,,,,,,,,,,,,,,,,,,
,,,,,,,,,,,,,,,,,,,,,,,,,,,,,,,,,,,,,,,,2.011111111,11.1135,0,7,7,0,1,imagenes/Banano.jpeg,0.141149019,,1000077902,2022-05-06_14h12.55.614,piloto2,2020.2.5,Win32,60,,,,,,,,,,,,,,,,,,,,,,,,,,,,,,,,,,,,,,,,,,,,,
,,,,,,,,,,,,,,,,,,,,,,,,,,,,,,,,,,,,,,,,2.966666667,10.3292,0,8,8,7,1,imagenes/salchicha hojaldrada.jpg,0.175267701,,1000077902,2022-05-06_14h12.55.614,piloto2,2020.2.5,Win32,60,,,,,,,,,,,,,,,,,,,,,,,,,,,,,,,,,,,,,,,,,,,,,
,,,,,,,,,,,,,,,,,,,,,,,,,,,,,,,,,,,,,,,,3.911111111,10.5286,0,9,9,3,1,imagenes/Croissant.jpg,0.000603317,,1000077902,2022-05-06_14h12.55.614,piloto2,2020.2.5,Win32,60,,,,,,,,,,,,,,,,,,,,,,,,,,,,,,,,,,,,,,,,,,,,,
,,,,,,,,,,,,,,,,,,,,,,,,,,,,,,,,,,,,,,,,1,5.2836,0,10,10,10,1,imagenes/Rollo.PNG,0.692746689,,1000077902,2022-05-06_14h12.55.614,piloto2,2020.2.5,Win32,60,,,,,,,,,,,,,,,,,,,,,,,,,,,,,,,,,,,,,,,,,,,,,
,,,,,,,,,,,,,,,,,,,,,,,,,,,,,,,,,,,,,,,,,,,,,,,,,,1000077902,2022-05-06_14h12.55.614,piloto2,2020.2.5,Win32,60,0,3,3,1,1,1500,0.02,,,,,,,,,,,,,,,,,,,,,,,,,,,,,,,,,,,,,,
,,,,,,,,,,,,,,,,,,,,,,,,,,,,,,,,,,,,,,,,,,,,,,,,,,1000077902,2022-05-06_14h12.55.614,piloto2,2020.2.5,Win32,60,,,,,,,,0.635555556,-0.374444444,1,0,0,boton_pago1,0.632222222,-0.394444444,1,0,0,boton_pago1,imagenes/Croissant.jpg,0.638888889,-0.391111111,1,0,0,boton_pago2,0.638888889,-0.391111111,1,0,0,boton_producto,Usted ha ganado 15.000 pesos,0.638888889,-0.391111111,1,0,0,boton_pago3,0.641111111,-0.357777778,1,0,0,boton_intro_encuesta
