mouse_intro.x,mouse_intro.y,mouse_intro.leftButton,mouse_intro.midButton,mouse_intro.rightButton,mouse_intro.clicked_name,mouse_intro_2.x,mouse_intro_2.y,mouse_intro_2.leftButton,mouse_intro_2.midButton,mouse_intro_2.rightButton,mouse_intro_2.clicked_name,mouse_intro_prueba.x,mouse_intro_prueba.y,mouse_intro_prueba.leftButton,mouse_intro_prueba.midButton,mouse_intro_prueba.rightButton,mouse_intro_prueba.clicked_name,slider_prueba.response,slider_prueba.rt,slider_prueba_2.response,slider_prueba_2.rt,mouse_intro_exp.x,mouse_intro_exp.y,mouse_intro_exp.leftButton,mouse_intro_exp.midButton,mouse_intro_exp.rightButton,mouse_intro_exp.clicked_name,mouse_subasta1.x,mouse_subasta1.y,mouse_subasta1.leftButton,mouse_subasta1.midButton,mouse_subasta1.rightButton,mouse_subasta1.clicked_name,mouse_subasta2.x,mouse_subasta2.y,mouse_subasta2.leftButton,mouse_subasta2.midButton,mouse_subasta2.rightButton,mouse_subasta2.clicked_name,slider_exp.response,slider_exp.rt,trials_2.thisRepN,trials_2.thisTrialN,trials_2.thisN,trials_2.thisIndex,trials_2.ran,Imagenes,Random,Correcto,participant,date,expName,psychopyVersion,OS,frameRate,trials.thisRepN,trials.thisTrialN,trials.thisN,trials.thisIndex,trials.ran,Hertz,volumen,mouse_pago1_2.x,mouse_pago1_2.y,mouse_pago1_2.leftButton,mouse_pago1_2.midButton,mouse_pago1_2.rightButton,mouse_pago1_2.clicked_name,mouse_pago1.x,mouse_pago1.y,mouse_pago1.leftButton,mouse_pago1.midButton,mouse_pago1.rightButton,mouse_pago1.clicked_name,product,mouse_pago2.x,mouse_pago2.y,mouse_pago2.leftButton,mouse_pago2.midButton,mouse_pago2.rightButton,mouse_pago2.clicked_name,mouse_producto.x,mouse_producto.y,mouse_producto.leftButton,mouse_producto.midButton,mouse_producto.rightButton,mouse_producto.clicked_name,mensaje,mouse_pago3.x,mouse_pago3.y,mouse_pago3.leftButton,mouse_pago3.midButton,mouse_pago3.rightButton,mouse_pago3.clicked_name,mouse_intro_encuesta.x,mouse_intro_encuesta.y,mouse_intro_encuesta.leftButton,mouse_intro_encuesta.midButton,mouse_intro_encuesta.rightButton,mouse_intro_encuesta.clicked_name
0.677777778,-0.436666667,1,0,0,boton_intro,0.667777778,-0.347777778,1,0,0,boton_intro_2,0.743333333,-0.364444444,1,0,0,boton_intro_prueba,1.977777778,8.501,2.988888889,6.0671,0.653333333,-0.391111111,1,0,0,boton_intro_exp,0.688888889,-0.404444444,1,0,0,boton_subasta1,0.663333333,-0.334444444,1,0,0,boton_subasta2,1.988888889,6.2044,0,0,0,8,1,imagenes/Uvas.jpg,0.693808302,,1034656507,2022-05-06_15h39.02.537,piloto2,2020.2.5,Win32,60,,,,,,,,,,,,,,,,,,,,,,,,,,,,,,,,,,,,,,,,,,,,,
,,,,,,,,,,,,,,,,,,,,,,,,,,,,,,,,,,,,,,,,2.977777778,6.3954,0,1,1,3,1,imagenes/Croissant.jpg,0.000603317,,1034656507,2022-05-06_15h39.02.537,piloto2,2020.2.5,Win32,60,,,,,,,,,,,,,,,,,,,,,,,,,,,,,,,,,,,,,,,,,,,,,
,,,,,,,,,,,,,,,,,,,,,,,,,,,,,,,,,,,,,,,,3,9.5611,0,2,2,2,1,imagenes/Chocoramo.jfif.jpg,0.803884425,,1034656507,2022-05-06_15h39.02.537,piloto2,2020.2.5,Win32,60,,,,,,,,,,,,,,,,,,,,,,,,,,,,,,,,,,,,,,,,,,,,,
,,,,,,,,,,,,,,,,,,,,,,,,,,,,,,,,,,,,,,,,1.988888889,6.2451,0,3,3,4,1,imagenes/Manzana.jpg,0.94520003,,1034656507,2022-05-06_15h39.02.537,piloto2,2020.2.5,Win32,60,,,,,,,,,,,,,,,,,,,,,,,,,,,,,,,,,,,,,,,,,,,,,
,,,,,,,,,,,,,,,,,,,,,,,,,,,,,,,,,,,,,,,,3.988888889,6.1857,0,4,4,5,1,imagenes/Muffin de banano.png,0.554296674,,1034656507,2022-05-06_15h39.02.537,piloto2,2020.2.5,Win32,60,,,,,,,,,,,,,,,,,,,,,,,,,,,,,,,,,,,,,,,,,,,,,
,,,,,,,,,,,,,,,,,,,,,,,,,,,,,,,,,,,,,,,,4,6.8772,0,5,5,7,1,imagenes/salchicha hojaldrada.jpg,0.175267701,,1034656507,2022-05-06_15h39.02.537,piloto2,2020.2.5,Win32,60,,,,,,,,,,,,,,,,,,,,,,,,,,,,,,,,,,,,,,,,,,,,,
,,,,,,,,,,,,,,,,,,,,,,,,,,,,,,,,,,,,,,,,2.983333333,5.679,0,6,6,1,1,imagenes/Brownie.jpg,0.814527559,,1034656507,2022-05-06_15h39.02.537,piloto2,2020.2.5,Win32,60,,,,,,,,,,,,,,,,,,,,,,,,,,,,,,,,,,,,,,,,,,,,,
,,,,,,,,,,,,,,,,,,,,,,,,,,,,,,,,,,,,,,,,4.966666667,6.5126,0,7,7,6,1,imagenes/Pizzetas.png,0.306756338,,1034656507,2022-05-06_15h39.02.537,piloto2,2020.2.5,Win32,60,,,,,,,,,,,,,,,,,,,,,,,,,,,,,,,,,,,,,,,,,,,,,
,,,,,,,,,,,,,,,,,,,,,,,,,,,,,,,,,,,,,,,,1.972222222,7.5292,0,8,8,0,1,imagenes/Banano.jpeg,0.141149019,,1034656507,2022-05-06_15h39.02.537,piloto2,2020.2.5,Win32,60,,,,,,,,,,,,,,,,,,,,,,,,,,,,,,,,,,,,,,,,,,,,,
,,,,,,,,,,,,,,,,,,,,,,,,,,,,,,,,,,,,,,,,2.016666667,8.5114,0,9,9,9,1,imagenes/Arepa.PNG,0.368531521,,1034656507,2022-05-06_15h39.02.537,piloto2,2020.2.5,Win32,60,,,,,,,,,,,,,,,,,,,,,,,,,,,,,,,,,,,,,,,,,,,,,
,,,,,,,,,,,,,,,,,,,,,,,,,,,,,,,,,,,,,,,,3.005555556,5.7423,0,10,10,10,1,imagenes/Rollo.PNG,0.692746689,,1034656507,2022-05-06_15h39.02.537,piloto2,2020.2.5,Win32,60,,,,,,,,,,,,,,,,,,,,,,,,,,,,,,,,,,,,,,,,,,,,,
,,,,,,,,,,,,,,,,,,,,,,,,,,,,,,,,,,,,,,,,,,,,,,,,,,1034656507,2022-05-06_15h39.02.537,piloto2,2020.2.5,Win32,60,0,0,0,1,1,1500,0.02,,,,,,,,,,,,,,,,,,,,,,,,,,,,,,,,,,,,,,
,,,,,,,,,,,,,,,,,,,,,,,,,,,,,,,,,,,,,,,,3,7.8477,0,0,0,7,1,imagenes/salchicha hojaldrada.jpg,0.175267701,,1034656507,2022-05-06_15h39.02.537,piloto2,2020.2.5,Win32,60,,,,,,,,,,,,,,,,,,,,,,,,,,,,,,,,,,,,,,,,,,,,,
,,,,,,,,,,,,,,,,,,,,,,,,,,,,,,,,,,,,,,,,1.972222222,4.5114,0,1,1,0,1,imagenes/Banano.jpeg,0.141149019,,1034656507,2022-05-06_15h39.02.537,piloto2,2020.2.5,Win32,60,,,,,,,,,,,,,,,,,,,,,,,,,,,,,,,,,,,,,,,,,,,,,
,,,,,,,,,,,,,,,,,,,,,,,,,,,,,,,,,,,,,,,,2.977777778,5.2328,0,2,2,3,1,imagenes/Croissant.jpg,0.000603317,,1034656507,2022-05-06_15h39.02.537,piloto2,2020.2.5,Win32,60,,,,,,,,,,,,,,,,,,,,,,,,,,,,,,,,,,,,,,,,,,,,,
,,,,,,,,,,,,,,,,,,,,,,,,,,,,,,,,,,,,,,,,2.011111111,4.7474,0,3,3,8,1,imagenes/Uvas.jpg,0.693808302,,1034656507,2022-05-06_15h39.02.537,piloto2,2020.2.5,Win32,60,,,,,,,,,,,,,,,,,,,,,,,,,,,,,,,,,,,,,,,,,,,,,
,,,,,,,,,,,,,,,,,,,,,,,,,,,,,,,,,,,,,,,,3.972222222,4.8439,0,4,4,5,1,imagenes/Muffin de banano.png,0.554296674,,1034656507,2022-05-06_15h39.02.537,piloto2,2020.2.5,Win32,60,,,,,,,,,,,,,,,,,,,,,,,,,,,,,,,,,,,,,,,,,,,,,
,,,,,,,,,,,,,,,,,,,,,,,,,,,,,,,,,,,,,,,,2,5.1441,0,5,5,4,1,imagenes/Manzana.jpg,0.94520003,,1034656507,2022-05-06_15h39.02.537,piloto2,2020.2.5,Win32,60,,,,,,,,,,,,,,,,,,,,,,,,,,,,,,,,,,,,,,,,,,,,,
,,,,,,,,,,,,,,,,,,,,,,,,,,,,,,,,,,,,,,,,3.977777778,7.9368,0,6,6,6,1,imagenes/Pizzetas.png,0.306756338,,1034656507,2022-05-06_15h39.02.537,piloto2,2020.2.5,Win32,60,,,,,,,,,,,,,,,,,,,,,,,,,,,,,,,,,,,,,,,,,,,,,
,,,,,,,,,,,,,,,,,,,,,,,,,,,,,,,,,,,,,,,,2.983333333,5.1515,0,7,7,1,1,imagenes/Brownie.jpg,0.814527559,,1034656507,2022-05-06_15h39.02.537,piloto2,2020.2.5,Win32,60,,,,,,,,,,,,,,,,,,,,,,,,,,,,,,,,,,,,,,,,,,,,,
,,,,,,,,,,,,,,,,,,,,,,,,,,,,,,,,,,,,,,,,2.994444444,6.5966,0,8,8,10,1,imagenes/Rollo.PNG,0.692746689,,1034656507,2022-05-06_15h39.02.537,piloto2,2020.2.5,Win32,60,,,,,,,,,,,,,,,,,,,,,,,,,,,,,,,,,,,,,,,,,,,,,
,,,,,,,,,,,,,,,,,,,,,,,,,,,,,,,,,,,,,,,,2.994444444,6.1453,0,9,9,9,1,imagenes/Arepa.PNG,0.368531521,,1034656507,2022-05-06_15h39.02.537,piloto2,2020.2.5,Win32,60,,,,,,,,,,,,,,,,,,,,,,,,,,,,,,,,,,,,,,,,,,,,,
,,,,,,,,,,,,,,,,,,,,,,,,,,,,,,,,,,,,,,,,2.988888889,4.7859,0,10,10,2,1,imagenes/Chocoramo.jfif.jpg,0.803884425,,1034656507,2022-05-06_15h39.02.537,piloto2,2020.2.5,Win32,60,,,,,,,,,,,,,,,,,,,,,,,,,,,,,,,,,,,,,,,,,,,,,
,,,,,,,,,,,,,,,,,,,,,,,,,,,,,,,,,,,,,,,,,,,,,,,,,,1034656507,2022-05-06_15h39.02.537,piloto2,2020.2.5,Win32,60,0,1,1,0,1,400,0.02,,,,,,,,,,,,,,,,,,,,,,,,,,,,,,,,,,,,,,
,,,,,,,,,,,,,,,,,,,,,,,,,,,,,,,,,,,,,,,,1.983333333,4.2887,0,0,0,8,1,imagenes/Uvas.jpg,0.693808302,,1034656507,2022-05-06_15h39.02.537,piloto2,2020.2.5,Win32,60,,,,,,,,,,,,,,,,,,,,,,,,,,,,,,,,,,,,,,,,,,,,,
,,,,,,,,,,,,,,,,,,,,,,,,,,,,,,,,,,,,,,,,2.977777778,4.6634,0,1,1,2,1,imagenes/Chocoramo.jfif.jpg,0.803884425,,1034656507,2022-05-06_15h39.02.537,piloto2,2020.2.5,Win32,60,,,,,,,,,,,,,,,,,,,,,,,,,,,,,,,,,,,,,,,,,,,,,
,,,,,,,,,,,,,,,,,,,,,,,,,,,,,,,,,,,,,,,,3.977777778,4.6269,0,2,2,6,1,imagenes/Pizzetas.png,0.306756338,,1034656507,2022-05-06_15h39.02.537,piloto2,2020.2.5,Win32,60,,,,,,,,,,,,,,,,,,,,,,,,,,,,,,,,,,,,,,,,,,,,,
,,,,,,,,,,,,,,,,,,,,,,,,,,,,,,,,,,,,,,,,2.994444444,4.7911,0,3,3,9,1,imagenes/Arepa.PNG,0.368531521,,1034656507,2022-05-06_15h39.02.537,piloto2,2020.2.5,Win32,60,,,,,,,,,,,,,,,,,,,,,,,,,,,,,,,,,,,,,,,,,,,,,
,,,,,,,,,,,,,,,,,,,,,,,,,,,,,,,,,,,,,,,,1.994444444,4.5092,0,4,4,4,1,imagenes/Manzana.jpg,0.94520003,,1034656507,2022-05-06_15h39.02.537,piloto2,2020.2.5,Win32,60,,,,,,,,,,,,,,,,,,,,,,,,,,,,,,,,,,,,,,,,,,,,,
,,,,,,,,,,,,,,,,,,,,,,,,,,,,,,,,,,,,,,,,3.966666667,4.7824,0,5,5,5,1,imagenes/Muffin de banano.png,0.554296674,,1034656507,2022-05-06_15h39.02.537,piloto2,2020.2.5,Win32,60,,,,,,,,,,,,,,,,,,,,,,,,,,,,,,,,,,,,,,,,,,,,,
,,,,,,,,,,,,,,,,,,,,,,,,,,,,,,,,,,,,,,,,2.994444444,4.9561,0,6,6,1,1,imagenes/Brownie.jpg,0.814527559,,1034656507,2022-05-06_15h39.02.537,piloto2,2020.2.5,Win32,60,,,,,,,,,,,,,,,,,,,,,,,,,,,,,,,,,,,,,,,,,,,,,
,,,,,,,,,,,,,,,,,,,,,,,,,,,,,,,,,,,,,,,,4,6.043,0,7,7,10,1,imagenes/Rollo.PNG,0.692746689,,1034656507,2022-05-06_15h39.02.537,piloto2,2020.2.5,Win32,60,,,,,,,,,,,,,,,,,,,,,,,,,,,,,,,,,,,,,,,,,,,,,
,,,,,,,,,,,,,,,,,,,,,,,,,,,,,,,,,,,,,,,,3.011111111,5.1905,0,8,8,7,1,imagenes/salchicha hojaldrada.jpg,0.175267701,,1034656507,2022-05-06_15h39.02.537,piloto2,2020.2.5,Win32,60,,,,,,,,,,,,,,,,,,,,,,,,,,,,,,,,,,,,,,,,,,,,,
,,,,,,,,,,,,,,,,,,,,,,,,,,,,,,,,,,,,,,,,3.011111111,5.0527,0,9,9,3,1,imagenes/Croissant.jpg,0.000603317,,1034656507,2022-05-06_15h39.02.537,piloto2,2020.2.5,Win32,60,,,,,,,,,,,,,,,,,,,,,,,,,,,,,,,,,,,,,,,,,,,,,
,,,,,,,,,,,,,,,,,,,,,,,,,,,,,,,,,,,,,,,,2.005555556,5.1357,0,10,10,0,1,imagenes/Banano.jpeg,0.141149019,,1034656507,2022-05-06_15h39.02.537,piloto2,2020.2.5,Win32,60,,,,,,,,,,,,,,,,,,,,,,,,,,,,,,,,,,,,,,,,,,,,,
,,,,,,,,,,,,,,,,,,,,,,,,,,,,,,,,,,,,,,,,,,,,,,,,,,1034656507,2022-05-06_15h39.02.537,piloto2,2020.2.5,Win32,60,0,2,2,3,1,1000,0,,,,,,,,,,,,,,,,,,,,,,,,,,,,,,,,,,,,,,
,,,,,,,,,,,,,,,,,,,,,,,,,,,,,,,,,,,,,,,,3.977777778,5.7699,0,0,0,10,1,imagenes/Rollo.PNG,0.692746689,,1034656507,2022-05-06_15h39.02.537,piloto2,2020.2.5,Win32,60,,,,,,,,,,,,,,,,,,,,,,,,,,,,,,,,,,,,,,,,,,,,,
,,,,,,,,,,,,,,,,,,,,,,,,,,,,,,,,,,,,,,,,2,5.0192,0,1,1,8,1,imagenes/Uvas.jpg,0.693808302,,1034656507,2022-05-06_15h39.02.537,piloto2,2020.2.5,Win32,60,,,,,,,,,,,,,,,,,,,,,,,,,,,,,,,,,,,,,,,,,,,,,
,,,,,,,,,,,,,,,,,,,,,,,,,,,,,,,,,,,,,,,,2.988888889,4.9202,0,2,2,3,1,imagenes/Croissant.jpg,0.000603317,,1034656507,2022-05-06_15h39.02.537,piloto2,2020.2.5,Win32,60,,,,,,,,,,,,,,,,,,,,,,,,,,,,,,,,,,,,,,,,,,,,,
,,,,,,,,,,,,,,,,,,,,,,,,,,,,,,,,,,,,,,,,3.005555556,5.1531,0,3,3,2,1,imagenes/Chocoramo.jfif.jpg,0.803884425,,1034656507,2022-05-06_15h39.02.537,piloto2,2020.2.5,Win32,60,,,,,,,,,,,,,,,,,,,,,,,,,,,,,,,,,,,,,,,,,,,,,
,,,,,,,,,,,,,,,,,,,,,,,,,,,,,,,,,,,,,,,,4,4.863,0,4,4,5,1,imagenes/Muffin de banano.png,0.554296674,,1034656507,2022-05-06_15h39.02.537,piloto2,2020.2.5,Win32,60,,,,,,,,,,,,,,,,,,,,,,,,,,,,,,,,,,,,,,,,,,,,,
,,,,,,,,,,,,,,,,,,,,,,,,,,,,,,,,,,,,,,,,3.005555556,4.602,0,5,5,9,1,imagenes/Arepa.PNG,0.368531521,,1034656507,2022-05-06_15h39.02.537,piloto2,2020.2.5,Win32,60,,,,,,,,,,,,,,,,,,,,,,,,,,,,,,,,,,,,,,,,,,,,,
,,,,,,,,,,,,,,,,,,,,,,,,,,,,,,,,,,,,,,,,2.983333333,4.3904,0,6,6,1,1,imagenes/Brownie.jpg,0.814527559,,1034656507,2022-05-06_15h39.02.537,piloto2,2020.2.5,Win32,60,,,,,,,,,,,,,,,,,,,,,,,,,,,,,,,,,,,,,,,,,,,,,
,,,,,,,,,,,,,,,,,,,,,,,,,,,,,,,,,,,,,,,,2.977777778,5.029,0,7,7,7,1,imagenes/salchicha hojaldrada.jpg,0.175267701,,1034656507,2022-05-06_15h39.02.537,piloto2,2020.2.5,Win32,60,,,,,,,,,,,,,,,,,,,,,,,,,,,,,,,,,,,,,,,,,,,,,
,,,,,,,,,,,,,,,,,,,,,,,,,,,,,,,,,,,,,,,,4.005555556,5.473,0,8,8,6,1,imagenes/Pizzetas.png,0.306756338,,1034656507,2022-05-06_15h39.02.537,piloto2,2020.2.5,Win32,60,,,,,,,,,,,,,,,,,,,,,,,,,,,,,,,,,,,,,,,,,,,,,
,,,,,,,,,,,,,,,,,,,,,,,,,,,,,,,,,,,,,,,,2,5.3866,0,9,9,0,1,imagenes/Banano.jpeg,0.141149019,,1034656507,2022-05-06_15h39.02.537,piloto2,2020.2.5,Win32,60,,,,,,,,,,,,,,,,,,,,,,,,,,,,,,,,,,,,,,,,,,,,,
,,,,,,,,,,,,,,,,,,,,,,,,,,,,,,,,,,,,,,,,2.005555556,4.4478,0,10,10,4,1,imagenes/Manzana.jpg,0.94520003,,1034656507,2022-05-06_15h39.02.537,piloto2,2020.2.5,Win32,60,,,,,,,,,,,,,,,,,,,,,,,,,,,,,,,,,,,,,,,,,,,,,
,,,,,,,,,,,,,,,,,,,,,,,,,,,,,,,,,,,,,,,,,,,,,,,,,,1034656507,2022-05-06_15h39.02.537,piloto2,2020.2.5,Win32,60,0,3,3,2,1,1000,0.02,,,,,,,,,,,,,,,,,,,,,,,,,,,,,,,,,,,,,,
,,,,,,,,,,,,,,,,,,,,,,,,,,,,,,,,,,,,,,,,,,,,,,,,,,1034656507,2022-05-06_15h39.02.537,piloto2,2020.2.5,Win32,60,,,,,,,,0.728888889,-0.403333333,1,0,0,boton_pago1,0.667777778,-0.365555556,1,0,0,boton_pago1,imagenes/salchicha hojaldrada.jpg,0.675555556,-0.357777778,1,0,0,boton_pago2,0.694444444,-0.357777778,1,0,0,boton_producto,Usted ha ganado 12989 pesos y el producto por el cual subastó,0.672222222,-0.357777778,1,0,0,boton_pago3,0.674444444,-0.382222222,1,0,0,boton_intro_encuesta
