Hertz,volumen,Imagenes,Random,Correcto,trials.thisRepN,trials.thisTrialN,trials.thisN,trials.thisIndex,trials_2.thisRepN,trials_2.thisTrialN,trials_2.thisN,trials_2.thisIndex,Sonido.started,Sonido.stopped,image_2.started,image_2.stopped,slider_2.response,slider_2.rt,slider_2.started,slider_2.stopped,text.started,text.stopped,text_2.started,text_2.stopped,participant,session,date,expName,psychopyVersion,frameRate,
1000,0.0,imagenes\Leche-de-almendras.jpg,0.36073876480313727,None,0,0,0,3,0,0,0,9,31.48567904997617,None,31.524624899990158,None,None,None,31.524624899990158,None,,,,,c,001,2020_Oct_06_1135,piloto1,2020.2.3,59.99307679510997,
1000,0.0,imagenes\bon-bon-bun.jpg,0.7387922093313524,None,0,0,0,3,0,1,1,2,32.40279126000242,None,32.408738700003596,None,None,None,32.408738700003596,None,,,,,c,001,2020_Oct_06_1135,piloto1,2020.2.3,59.99307679510997,
1000,0.0,imagenes\Uvas.jpg,0.7734382152670648,None,0,0,0,3,0,2,2,19,33.36856404000428,33.37742430000799,33.36953659998835,None,None,None,33.36953659998835,None,,,,,c,001,2020_Oct_06_1135,piloto1,2020.2.3,59.99307679510997,
1000,0.0,imagenes\Galletas Tosh.jpg,0.478088790487872,None,0,0,0,3,0,3,3,6,34.38568094998482,None,34.38928400000441,None,None,None,34.38928400000441,None,,,,,c,001,2020_Oct_06_1135,piloto1,2020.2.3,59.99307679510997,
1000,0.0,imagenes\Galletas-festival.jpg,0.36121121246191135,None,0,0,0,3,0,4,4,7,35.38556165000773,35.39860379998572,35.391233200003626,None,None,None,35.391233200003626,None,,,,,c,001,2020_Oct_06_1135,piloto1,2020.2.3,59.99307679510997,
1000,0.0,imagenes\Mango.jpeg,0.555669112372461,None,0,0,0,3,0,5,5,10,36.352153729990825,None,36.35460249998141,None,None,None,36.35460249998141,None,,,,,c,001,2020_Oct_06_1135,piloto1,2020.2.3,59.99307679510997,
1000,0.0,imagenes\Papas-limon.jpg,0.020692288100133793,None,0,0,0,3,0,6,6,14,37.33541371999891,None,37.34178220000467,None,None,None,37.34178220000467,None,,,,,c,001,2020_Oct_06_1135,piloto1,2020.2.3,59.99307679510997,
1000,0.0,imagenes\Chocoramo.jfif.jpg,0.7789437122019539,None,0,0,0,3,0,7,7,4,38.36870144000277,None,38.36419659998501,None,None,None,38.36419659998501,None,,,,,c,001,2020_Oct_06_1135,piloto1,2020.2.3,59.99307679510997,
1000,0.0,imagenes\Popetas.jpg,0.07650200324054446,None,0,0,0,3,0,8,8,16,39.38548764999723,None,39.39013189999969,None,None,None,39.39013189999969,None,,,,,c,001,2020_Oct_06_1135,piloto1,2020.2.3,59.99307679510997,
1000,0.0,imagenes\Banano.jpeg,0.651633055306917,None,0,0,0,3,0,9,9,1,40.35180462998105,40.3576924999943,40.34900529999868,None,None,None,40.34900529999868,None,,,,,c,001,2020_Oct_06_1135,piloto1,2020.2.3,59.99307679510997,
1000,0.0,imagenes\Papas-pollo.jpg,0.6683114062971784,None,0,0,0,3,0,10,10,15,41.335254819982225,None,41.34456480000517,None,None,None,41.34456480000517,None,,,,,c,001,2020_Oct_06_1135,piloto1,2020.2.3,59.99307679510997,
1000,0.0,imagenes\Nutella (1).jpg,0.5277483225747329,None,0,0,0,3,0,11,11,12,42.33520991998958,42.351368600007845,42.34081170000718,None,3.5390625,0.4917436999967322,42.34081170000718,None,,,,,c,001,2020_Oct_06_1135,piloto1,2020.2.3,59.99307679510997,
1000,0.0,imagenes\Alpinito.jpg,0.4515332417045813,None,0,0,0,3,0,12,12,0,42.88457962998073,None,42.88000830000965,None,2.614583333333333,0.29979699998511933,42.88000830000965,None,,,,,c,001,2020_Oct_06_1135,piloto1,2020.2.3,59.99307679510997,
1000,0.0,imagenes\Croissant.jpg,0.6152458173421255,None,0,0,0,3,0,13,13,5,43.267902449995745,None,43.26401189999888,None,2.50390625,0.05027340000378899,43.26401189999888,None,,,,,c,001,2020_Oct_06_1135,piloto1,2020.2.3,59.99307679510997,
1000,0.0,imagenes\Yogurt-alpina.jpg,0.21540995091807813,None,0,0,0,3,0,14,14,18,43.35158921999974,None,43.3430900000094,None,4.7109375,0.5005098000110593,43.3430900000094,None,,,,,c,001,2020_Oct_06_1135,piloto1,2020.2.3,59.99307679510997,
1000,0.0,imagenes\Manzana.jpg,0.5168162194437935,None,0,0,0,3,0,15,15,11,43.88475581998355,None,43.89085540000815,None,4.821614583333334,0.07207019999623299,43.89085540000815,None,,,,,c,001,2020_Oct_06_1135,piloto1,2020.2.3,59.99307679510997,
1000,0.0,imagenes\Papas-naturales.jpg,0.15856838916280946,None,0,0,0,3,0,16,16,13,43.98456440998707,None,43.990907100000186,None,3.513020833333333,0.271016899991082,43.990907100000186,None,,,,,c,001,2020_Oct_06_1135,piloto1,2020.2.3,59.99307679510997,
1000,0.0,imagenes\Rosquitas (1).jpg,0.3035383390851263,None,0,0,0,3,0,17,17,17,44.30122912000516,None,44.30268170000636,None,2.9075520833333335,0.12660339998546988,44.30268170000636,None,,,,,c,001,2020_Oct_06_1135,piloto1,2020.2.3,59.99307679510997,
1000,0.0,imagenes\Kiwi.jpg,0.5893907384852061,None,0,0,0,3,0,18,18,8,44.451096909982155,44.467944899981376,44.454592299996875,None,1.8984375,0.1412564000056591,44.454592299996875,None,,,,,c,001,2020_Oct_06_1135,piloto1,2020.2.3,59.99307679510997,
1000,0.0,imagenes\Brownie.jpg,0.17000143351927688,None,0,0,0,3,0,19,19,3,44.667871439986634,None,44.666580199991586,None,1.5533854166666665,0.07753929999307729,44.666580199991586,None,,,,,c,001,2020_Oct_06_1135,piloto1,2020.2.3,59.99307679510997,
1000,0.0,,,,0,0,0,3,,,,,,,,,,,,,,,,,c,001,2020_Oct_06_1135,piloto1,2020.2.3,59.99307679510997,
1000,0.02,imagenes\Banano.jpeg,0.651633055306917,None,0,1,1,2,0,0,0,1,44.784733619983314,None,44.79043629998341,None,3.721354166666667,0.1381499000126496,44.79043629998341,None,,,,,c,001,2020_Oct_06_1135,piloto1,2020.2.3,59.99307679510997,
1000,0.02,imagenes\Galletas Tosh.jpg,0.478088790487872,None,0,1,1,2,0,1,1,6,44.98467542998842,None,44.986553900002036,None,4.61328125,0.0907221999950707,44.986553900002036,None,,,,,c,001,2020_Oct_06_1135,piloto1,2020.2.3,59.99307679510997,
1000,0.02,imagenes\Manzana.jpg,0.5168162194437935,None,0,1,1,2,0,2,2,11,45.117859719996346,None,45.123105000006035,None,5.036458333333334,0.10379129997454584,45.123105000006035,None,,,,,c,001,2020_Oct_06_1135,piloto1,2020.2.3,59.99307679510997,
1000,0.02,imagenes\Nutella (1).jpg,0.5277483225747329,None,0,1,1,2,0,3,3,12,45.251195409992945,None,45.25888219999615,None,2.328125,0.28730759999598376,45.25888219999615,None,,,,,c,001,2020_Oct_06_1135,piloto1,2020.2.3,59.99307679510997,
1000,0.02,imagenes\Mango.jpeg,0.555669112372461,None,0,1,1,2,0,4,4,10,45.60150392999058,None,45.60088899999391,None,2.295572916666667,0.09391490000416525,45.60088899999391,None,,,,,c,001,2020_Oct_06_1135,piloto1,2020.2.3,59.99307679510997,
1000,0.02,imagenes\Papas-limon.jpg,0.020692288100133793,None,0,1,1,2,0,5,5,14,45.718205109983685,45.734418200008804,45.721660499984864,None,3.7734375,0.15589970001019537,45.721660499984864,None,,,,,c,001,2020_Oct_06_1135,piloto1,2020.2.3,59.99307679510997,
1000,0.02,imagenes\Uvas.jpg,0.7734382152670648,None,0,1,1,2,0,6,6,19,45.91780421999866,45.92643490000046,45.92032129998552,None,4.346354166666667,0.12296770000830293,45.92032129998552,None,,,,,c,001,2020_Oct_06_1135,piloto1,2020.2.3,59.99307679510997,
1000,0.02,imagenes\Galletas-festival.jpg,0.36121121246191135,None,0,1,1,2,0,7,7,7,46.10150342998677,46.10029410000425,46.094966799981194,None,3.4153645833333335,0.11545740001020022,46.094966799981194,None,,,,,c,001,2020_Oct_06_1135,piloto1,2020.2.3,59.99307679510997,
1000,0.02,imagenes\Papas-naturales.jpg,0.15856838916280946,None,0,1,1,2,0,8,8,13,46.23478230998735,None,46.24114629998803,None,3.0963541666666665,0.12092119999579154,46.24114629998803,None,,,,,c,001,2020_Oct_06_1135,piloto1,2020.2.3,59.99307679510997,
1000,0.02,imagenes\Popetas.jpg,0.07650200324054446,None,0,1,1,2,0,9,9,16,46.41770112999948,None,46.42323210000177,None,3.890625,0.10549210000317544,46.42323210000177,None,,,,,c,001,2020_Oct_06_1135,piloto1,2020.2.3,59.99307679510997,
1000,0.02,imagenes\bon-bon-bun.jpg,0.7387922093313524,None,0,1,1,2,0,10,10,2,46.60122773998301,None,46.596174100006465,None,4.528645833333333,0.09759039999335073,46.596174100006465,None,,,,,c,001,2020_Oct_06_1135,piloto1,2020.2.3,59.99307679510997,
1000,0.02,imagenes\Chocoramo.jfif.jpg,0.7789437122019539,None,0,1,1,2,0,11,11,4,46.734842719981685,None,46.738904199999524,None,5.010416666666666,0.14036990000749938,46.738904199999524,None,,,,,c,001,2020_Oct_06_1135,piloto1,2020.2.3,59.99307679510997,
1000,0.02,imagenes\Yogurt-alpina.jpg,0.21540995091807813,None,0,1,1,2,0,12,12,18,46.91777392000077,46.91777510000975,46.90901129998383,None,4.977864583333334,0.13533879999886267,46.90901129998383,None,,,,,c,001,2020_Oct_06_1135,piloto1,2020.2.3,59.99307679510997,
1000,0.02,imagenes\Rosquitas (1).jpg,0.3035383390851263,None,0,1,1,2,0,13,13,17,47.084851519996306,None,47.08809659999679,None,3.591145833333333,0.1256600999913644,47.08809659999679,None,,,,,c,001,2020_Oct_06_1135,piloto1,2020.2.3,59.99307679510997,
1000,0.02,imagenes\Kiwi.jpg,0.5893907384852061,None,0,1,1,2,0,14,14,8,47.2346717099892,None,47.235619899991434,None,2.6796875,0.14238939998904243,47.235619899991434,None,,,,,c,001,2020_Oct_06_1135,piloto1,2020.2.3,59.99307679510997,
1000,0.02,imagenes\Brownie.jpg,0.17000143351927688,None,0,1,1,2,0,15,15,3,47.434439030004434,None,47.43104389999644,None,2.2239583333333335,0.11428490001708269,47.43104389999644,None,,,,,c,001,2020_Oct_06_1135,piloto1,2020.2.3,59.99307679510997,
1000,0.02,imagenes\Croissant.jpg,0.6152458173421255,None,0,1,1,2,0,16,16,5,47.60159082998289,None,47.59398649999639,None,3.3697916666666665,0.13500089998706244,47.59398649999639,None,,,,,c,001,2020_Oct_06_1135,piloto1,2020.2.3,59.99307679510997,
1000,0.02,imagenes\Leche-de-almendras.jpg,0.36073876480313727,None,0,1,1,2,0,17,17,9,47.8510824699828,None,47.8587225000083,None,4.4765625,0.0398879999993369,47.8587225000083,None,,,,,c,001,2020_Oct_06_1135,piloto1,2020.2.3,59.99307679510997,
1000,0.02,imagenes\Papas-pollo.jpg,0.6683114062971784,None,0,1,1,2,0,18,18,15,47.91839301,None,47.9243936999992,None,4.736979166666667,0.1540738999901805,47.9243936999992,None,,,,,c,001,2020_Oct_06_1135,piloto1,2020.2.3,59.99307679510997,
1000,0.02,imagenes\Alpinito.jpg,0.4515332417045813,None,0,1,1,2,0,19,19,0,48.134250130003785,48.13846809999086,48.13183559998288,None,3.591145833333333,0.11362090002512559,48.13183559998288,None,,,,,c,001,2020_Oct_06_1135,piloto1,2020.2.3,59.99307679510997,
1000,0.02,,,,0,1,1,2,,,,,,,,,,,,,,,,,c,001,2020_Oct_06_1135,piloto1,2020.2.3,59.99307679510997,
400,0.02,imagenes\Popetas.jpg,0.07650200324054446,None,0,2,2,0,0,0,0,16,48.31807183999336,48.3211544000078,48.31424079998396,None,2.58203125,0.09642980000353418,48.31424079998396,None,,,,,c,001,2020_Oct_06_1135,piloto1,2020.2.3,59.99307679510997,
400,0.02,imagenes\Leche-de-almendras.jpg,0.36073876480313727,None,0,2,2,0,0,1,1,9,48.48453974000295,None,48.49184499998228,None,2.334635416666667,0.08849299998837523,48.49184499998228,None,,,,,c,001,2020_Oct_06_1135,piloto1,2020.2.3,59.99307679510997,
400,0.02,imagenes\Papas-limon.jpg,0.020692288100133793,None,0,2,2,0,0,2,2,14,48.60121370999259,48.617709799989825,48.606595099990955,None,3.28515625,0.15574119999655522,48.606595099990955,None,,,,,c,001,2020_Oct_06_1135,piloto1,2020.2.3,59.99307679510997,
400,0.02,imagenes\Galletas Tosh.jpg,0.478088790487872,None,0,2,2,0,0,3,3,6,48.83461504000007,None,48.833035999996355,None,4.359375,0.09873160001006909,48.833035999996355,None,,,,,c,001,2020_Oct_06_1135,piloto1,2020.2.3,59.99307679510997,
400,0.02,imagenes\bon-bon-bun.jpg,0.7387922093313524,None,0,2,2,0,0,4,4,2,48.96762971999706,48.977038799988804,48.97041509998962,None,5.192708333333334,0.12545910000335425,48.97041509998962,None,,,,,c,001,2020_Oct_06_1135,piloto1,2020.2.3,59.99307679510997,
400,0.02,imagenes\Alpinito.jpg,0.4515332417045813,None,0,2,2,0,0,5,5,0,49.151191629987444,None,49.14662369998405,None,5.375,0.13134500000160187,49.14662369998405,None,,,,,c,001,2020_Oct_06_1135,piloto1,2020.2.3,59.99307679510997,
400,0.02,imagenes\Croissant.jpg,0.6152458173421255,None,0,2,2,0,0,6,6,5,49.334368929988706,None,49.32657070001005,None,3.955729166666667,0.11904300001333468,49.32657070001005,None,,,,,c,001,2020_Oct_06_1135,piloto1,2020.2.3,59.99307679510997,
400,0.02,imagenes\Manzana.jpg,0.5168162194437935,None,0,2,2,0,0,7,7,11,49.484771419991745,None,49.489553599996725,None,2.803385416666667,0.13686489997780882,49.489553599996725,None,,,,,c,001,2020_Oct_06_1135,piloto1,2020.2.3,59.99307679510997,
400,0.02,imagenes\Brownie.jpg,0.17000143351927688,None,0,2,2,0,0,8,8,3,49.68428532999824,None,49.677971299999626,None,2.1197916666666665,0.13612549999379553,49.677971299999626,None,,,,,c,001,2020_Oct_06_1135,piloto1,2020.2.3,59.99307679510997,
400,0.02,imagenes\Papas-naturales.jpg,0.15856838916280946,None,0,2,2,0,0,9,9,13,49.83459480999154,None,49.841808299999684,None,2.0611979166666665,0.10386930001550354,49.841808299999684,None,,,,,c,001,2020_Oct_06_1135,piloto1,2020.2.3,59.99307679510997,
400,0.02,imagenes\Papas-pollo.jpg,0.6683114062971784,None,0,2,2,0,0,10,10,15,49.968015909998215,49.984270899993135,49.972029500000644,None,3.916666666666667,0.15692839998519048,49.972029500000644,None,,,,,c,001,2020_Oct_06_1135,piloto1,2020.2.3,59.99307679510997,
400,0.02,imagenes\Mango.jpeg,0.555669112372461,None,0,2,2,0,0,11,11,10,50.1675865199999,None,50.162147600000026,None,4.626302083333333,0.13196959998458624,50.162147600000026,None,,,,,c,001,2020_Oct_06_1135,piloto1,2020.2.3,59.99307679510997,
400,0.02,imagenes\Yogurt-alpina.jpg,0.21540995091807813,None,0,2,2,0,0,12,12,18,50.33467252000119,None,50.32666200000676,None,4.346354166666667,0.1179425000154879,50.32666200000676,None,,,,,c,001,2020_Oct_06_1135,piloto1,2020.2.3,59.99307679510997,
400,0.02,imagenes\Chocoramo.jfif.jpg,0.7789437122019539,None,0,2,2,0,0,13,13,4,50.48470442000544,None,50.49069820001023,None,3.40234375,0.1214724000019487,50.49069820001023,None,,,,,c,001,2020_Oct_06_1135,piloto1,2020.2.3,59.99307679510997,
400,0.02,imagenes\Rosquitas (1).jpg,0.3035383390851263,None,0,2,2,0,0,14,14,17,50.65119941998856,50.65757399998256,50.651391699997475,None,4.020833333333333,0.1421445999876596,50.651391699997475,None,,,,,c,001,2020_Oct_06_1135,piloto1,2020.2.3,59.99307679510997,
400,0.02,imagenes\Kiwi.jpg,0.5893907384852061,None,0,2,2,0,0,15,15,8,50.818018109991684,None,50.8193903999927,None,4.118489583333333,0.12536000000545755,50.8193903999927,None,,,,,c,001,2020_Oct_06_1135,piloto1,2020.2.3,59.99307679510997,
400,0.02,imagenes\Uvas.jpg,0.7734382152670648,None,0,2,2,0,0,16,16,19,50.984652919991646,None,50.97580549999839,None,3.1419270833333335,0.13579410000238568,50.97580549999839,None,,,,,c,001,2020_Oct_06_1135,piloto1,2020.2.3,59.99307679510997,
400,0.02,imagenes\Nutella (1).jpg,0.5277483225747329,None,0,2,2,0,0,17,17,12,51.13418260998442,None,51.139459500001976,None,3.3828125,0.15580209999461658,51.139459500001976,None,,,,,c,001,2020_Oct_06_1135,piloto1,2020.2.3,59.99307679510997,
400,0.02,imagenes\Galletas-festival.jpg,0.36121121246191135,None,0,2,2,0,0,18,18,7,51.33465531998664,51.34033679999993,51.33338319999166,None,4.2421875,0.14504820000729524,51.33338319999166,None,,,,,c,001,2020_Oct_06_1135,piloto1,2020.2.3,59.99307679510997,
400,0.02,imagenes\Banano.jpeg,0.651633055306917,None,0,2,2,0,0,19,19,1,51.517539419996325,None,51.5168510999938,None,3.962239583333333,0.12736839998979121,51.5168510999938,None,,,,,c,001,2020_Oct_06_1135,piloto1,2020.2.3,59.99307679510997,
400,0.02,,,,0,2,2,0,,,,,,,,,,,,,,,,,c,001,2020_Oct_06_1135,piloto1,2020.2.3,59.99307679510997,
1500,0.02,imagenes\Rosquitas (1).jpg,0.3035383390851263,None,0,3,3,1,0,0,0,17,51.70129632998724,51.69891710000229,51.69297410000581,None,2.875,0.1176405000151135,51.69297410000581,None,,,,,c,001,2020_Oct_06_1135,piloto1,2020.2.3,59.99307679510997,
1500,0.02,imagenes\Yogurt-alpina.jpg,0.21540995091807813,None,0,3,3,1,0,1,1,18,51.85086802000879,51.8511087000079,51.841943100007484,None,2.62109375,0.13530110000283457,51.841943100007484,None,,,,,c,001,2020_Oct_06_1135,piloto1,2020.2.3,59.99307679510997,
1500,0.02,imagenes\Mango.jpeg,0.555669112372461,None,0,3,3,1,0,2,2,10,52.01755821999396,52.01966160000302,52.01221630000509,None,4.046875,0.28231580002466217,52.01221630000509,None,,,,,c,001,2020_Oct_06_1135,piloto1,2020.2.3,59.99307679510997,
1500,0.02,imagenes\Nutella (1).jpg,0.5277483225747329,None,0,3,3,1,0,3,3,12,52.3179689099954,None,52.32312190000084,None,4.294270833333333,0.15625219998764805,52.32312190000084,None,,,,,c,001,2020_Oct_06_1135,piloto1,2020.2.3,59.99307679510997,
1500,0.02,imagenes\Uvas.jpg,0.7734382152670648,None,0,3,3,1,0,4,4,19,52.517479220003594,None,52.50853210000787,None,2.9596354166666665,0.17035439997562207,52.50853210000787,None,,,,,c,001,2020_Oct_06_1135,piloto1,2020.2.3,59.99307679510997,
1500,0.02,imagenes\bon-bon-bun.jpg,0.7387922093313524,None,0,3,3,1,0,5,5,2,52.71754041998648,None,52.717178899998544,None,2.953125,0.14357320000999607,52.717178899998544,None,,,,,c,001,2020_Oct_06_1135,piloto1,2020.2.3,59.99307679510997,
1500,0.02,imagenes\Chocoramo.jfif.jpg,0.7789437122019539,None,0,3,3,1,0,6,6,4,52.917633330007085,None,52.908508799999254,None,4.092447916666667,0.13590120000299066,52.908508799999254,None,,,,,c,001,2020_Oct_06_1135,piloto1,2020.2.3,59.99307679510997,
1500,0.02,imagenes\Kiwi.jpg,0.5893907384852061,None,0,3,3,1,0,7,7,8,53.0676460099814,None,53.06909810000798,None,4.14453125,0.17580379999708384,53.06909810000798,None,,,,,c,001,2020_Oct_06_1135,piloto1,2020.2.3,59.99307679510997,
1500,0.02,imagenes\Galletas Tosh.jpg,0.478088790487872,None,0,3,3,1,0,8,8,6,53.28455821998651,None,53.291437899984885,None,3.16796875,0.10369810002157465,53.291437899984885,None,,,,,c,001,2020_Oct_06_1135,piloto1,2020.2.3,59.99307679510997,
1500,0.02,imagenes\Leche-de-almendras.jpg,0.36073876480313727,None,0,3,3,1,0,9,9,9,53.48453934999998,None,53.499268099985784,None,3.0768229166666665,0.10612949999631383,53.499268099985784,None,,,,,c,001,2020_Oct_06_1135,piloto1,2020.2.3,59.99307679510997,
1500,0.02,imagenes\Banano.jpeg,0.651633055306917,None,0,3,3,1,0,10,10,1,53.617584509996234,53.63398459999007,53.62198259998695,None,4.02734375,0.17086620000191033,53.62198259998695,None,,,,,c,001,2020_Oct_06_1135,piloto1,2020.2.3,59.99307679510997,
1500,0.02,imagenes\Papas-naturales.jpg,0.15856838916280946,None,0,3,3,1,0,11,11,13,53.817573509982324,None,53.82353880000301,None,4.430989583333333,0.13721360001363792,53.82353880000301,None,,,,,c,001,2020_Oct_06_1135,piloto1,2020.2.3,59.99307679510997,
1500,0.02,imagenes\Brownie.jpg,0.17000143351927688,None,0,3,3,1,0,12,12,3,54.01757182998117,None,54.01580190000823,None,4.53515625,0.1295455000072252,54.01580190000823,None,,,,,c,001,2020_Oct_06_1135,piloto1,2020.2.3,59.99307679510997,
1500,0.02,imagenes\Papas-pollo.jpg,0.6683114062971784,None,0,3,3,1,0,13,13,15,54.16787321000011,54.18388880000566,54.17219819998718,None,3.63671875,0.13939500000560656,54.17219819998718,None,,,,,c,001,2020_Oct_06_1135,piloto1,2020.2.3,59.99307679510997,
1500,0.02,imagenes\Galletas-festival.jpg,0.36121121246191135,None,0,3,3,1,0,14,14,7,54.35086481998442,None,54.34988460000022,None,3.421875,0.12899249998736195,54.34988460000022,None,,,,,c,001,2020_Oct_06_1135,piloto1,2020.2.3,59.99307679510997,
1500,0.02,imagenes\Croissant.jpg,0.6152458173421255,None,0,3,3,1,0,15,15,5,54.517368220002396,54.530050300003495,54.523735099995974,None,2.764322916666667,0.138842599990312,54.523735099995974,None,,,,,c,001,2020_Oct_06_1135,piloto1,2020.2.3,59.99307679510997,
1500,0.02,imagenes\Papas-limon.jpg,0.020692288100133793,None,0,3,3,1,0,16,16,14,54.68421130998759,54.70104839999112,54.69005269999616,None,2.516927083333333,0.13767530000768602,54.69005269999616,None,,,,,c,001,2020_Oct_06_1135,piloto1,2020.2.3,59.99307679510997,
1500,0.02,imagenes\Popetas.jpg,0.07650200324054446,None,0,3,3,1,0,17,17,16,54.90067203998915,None,54.896263700007694,None,3.3828125,0.13138659999822266,54.896263700007694,None,,,,,c,001,2020_Oct_06_1135,piloto1,2020.2.3,59.99307679510997,
1500,0.02,imagenes\Alpinito.jpg,0.4515332417045813,None,0,3,3,1,0,18,18,0,55.08409163000179,None,55.082913799997186,None,4.014322916666667,0.09741750001558103,55.082913799997186,None,,,,,c,001,2020_Oct_06_1135,piloto1,2020.2.3,59.99307679510997,
1500,0.02,imagenes\Manzana.jpg,0.5168162194437935,None,0,3,3,1,0,19,19,11,55.21749081998715,None,55.22325779998209,None,4.079427083333333,0.15452419998473488,55.22325779998209,None,,,,,c,001,2020_Oct_06_1135,piloto1,2020.2.3,59.99307679510997,
1500,0.02,,,,0,3,3,1,,,,,,,,,,,,,,,,,c,001,2020_Oct_06_1135,piloto1,2020.2.3,59.99307679510997,
,,,,,,,,,,,,,,,,,,,,,55.44482119998429,None,55.44482119998429,None,,,,,,,
