Hertz,volumen,Imagenes,Random,Correcto,trials.thisRepN,trials.thisTrialN,trials.thisN,trials.thisIndex,trials_2.thisRepN,trials_2.thisTrialN,trials_2.thisN,trials_2.thisIndex,Sonido.started,Sonido.stopped,image_2.started,image_2.stopped,slider_2.response,slider_2.rt,slider_2.started,slider_2.stopped,participant,session,date,expName,psychopyVersion,frameRate,
1000,0.0,imagenes\Galletas Tosh.jpg,0.478088790487872,None,0,0,0,3,0,0,0,6,39.54152090012212,None,39.57731190000777,None,None,None,39.57731190000777,None,d,001,2020_Oct_06_1130,piloto1,2020.2.3,59.91945626743336,
1000,0.0,imagenes\Galletas-festival.jpg,0.36121121246191135,None,0,0,0,3,0,1,1,7,40.47289897001756,40.47896140001831,40.472186700004386,None,3.5,0.1596181999775581,40.472186700004386,None,d,001,2020_Oct_06_1130,piloto1,2020.2.3,59.91945626743336,
1000,0.0,imagenes\Papas-limon.jpg,0.020692288100133793,None,0,0,0,3,0,2,2,14,40.672757880011346,40.67274800001178,40.666833600000245,None,3.4934895833333335,0.14963369999895804,40.666833600000245,None,d,001,2020_Oct_06_1130,piloto1,2020.2.3,59.91945626743336,
1000,0.0,imagenes\bon-bon-bun.jpg,0.7387922093313524,None,0,0,0,3,0,3,3,2,40.87265157001966,None,40.86326220000046,None,3.4934895833333335,0.13434689998393878,40.86326220000046,None,d,001,2020_Oct_06_1130,piloto1,2020.2.3,59.91945626743336,
1000,0.0,imagenes\Banano.jpeg,0.651633055306917,None,0,0,0,3,0,4,4,1,41.03923158001854,None,41.037177600024734,None,3.4934895833333335,0.11275199998635799,41.037177600024734,None,d,001,2020_Oct_06_1130,piloto1,2020.2.3,59.91945626743336,
1000,0.0,imagenes\Yogurt-alpina.jpg,0.21540995091807813,None,0,0,0,3,0,5,5,18,41.189313680026686,None,41.1857862000179,None,3.4934895833333335,0.14629899998544715,41.1857862000179,None,d,001,2020_Oct_06_1130,piloto1,2020.2.3,59.91945626743336,
1000,0.0,imagenes\Kiwi.jpg,0.5893907384852061,None,0,0,0,3,0,6,6,8,41.37257948000334,41.37244780000765,41.361601900018286,None,3.4934895833333335,0.1357787000015378,41.361601900018286,None,d,001,2020_Oct_06_1130,piloto1,2020.2.3,59.91945626743336,
1000,0.0,imagenes\Nutella (1).jpg,0.5277483225747329,None,0,0,0,3,0,7,7,12,41.53932438002667,41.53911060001701,41.52969510000548,None,3.4934895833333335,0.11791820000507869,41.52969510000548,None,d,001,2020_Oct_06_1130,piloto1,2020.2.3,59.91945626743336,
1000,0.0,imagenes\Leche-de-almendras.jpg,0.36073876480313727,None,0,0,0,3,0,8,8,9,41.73973895002564,None,41.73751710000215,None,3.4934895833333335,0.0627731999848038,41.73751710000215,None,d,001,2020_Oct_06_1130,piloto1,2020.2.3,59.91945626743336,
1000,0.0,imagenes\Popetas.jpg,0.07650200324054446,None,0,0,0,3,0,9,9,16,41.873073060018946,None,41.87600139999995,None,3.4934895833333335,0.05773400000180118,41.87600139999995,None,d,001,2020_Oct_06_1130,piloto1,2020.2.3,59.91945626743336,
1000,0.0,imagenes\Croissant.jpg,0.6152458173421255,None,0,0,0,3,0,10,10,5,42.006178560009,None,41.99805570000899,None,3.4934895833333335,0.08466650001355447,41.99805570000899,None,d,001,2020_Oct_06_1130,piloto1,2020.2.3,59.91945626743336,
1000,0.0,imagenes\Rosquitas (1).jpg,0.3035383390851263,None,0,0,0,3,0,11,11,17,42.13926057003264,42.150001800007885,42.145009600004414,None,3.4934895833333335,0.08647579999524169,42.145009600004414,None,d,001,2020_Oct_06_1130,piloto1,2020.2.3,59.91945626743336,
1000,0.0,imagenes\Chocoramo.jfif.jpg,0.7789437122019539,None,0,0,0,3,0,12,12,4,42.27255268002628,42.286492900020676,42.280276300007245,None,3.4934895833333335,0.10382170000229962,42.280276300007245,None,d,001,2020_Oct_06_1130,piloto1,2020.2.3,59.91945626743336,
1000,0.0,imagenes\Mango.jpeg,0.555669112372461,None,0,0,0,3,0,13,13,10,42.43920917000796,42.440466600004584,42.434683600004064,None,3.4934895833333335,0.09654239998781122,42.434683600004064,None,d,001,2020_Oct_06_1130,piloto1,2020.2.3,59.91945626743336,
1000,0.0,imagenes\Manzana.jpg,0.5168162194437935,None,0,0,0,3,0,14,14,11,42.572569980029954,None,42.575597500021104,None,3.4934895833333335,0.0909084000159055,42.575597500021104,None,d,001,2020_Oct_06_1130,piloto1,2020.2.3,59.91945626743336,
1000,0.0,imagenes\Papas-pollo.jpg,0.6683114062971784,None,0,0,0,3,0,15,15,15,42.70589608001174,None,42.70914960000664,None,3.4934895833333335,0.09151800000108778,42.70914960000664,None,d,001,2020_Oct_06_1130,piloto1,2020.2.3,59.91945626743336,
1000,0.0,imagenes\Papas-naturales.jpg,0.15856838916280946,None,0,0,0,3,0,16,16,13,42.82250159001269,None,42.828403999999864,None,3.4934895833333335,0.12121929999557324,42.828403999999864,None,d,001,2020_Oct_06_1130,piloto1,2020.2.3,59.91945626743336,
1000,0.0,imagenes\Alpinito.jpg,0.4515332417045813,None,0,0,0,3,0,17,17,0,43.00591837001557,None,42.9989726000058,None,3.4934895833333335,0.10097299999324605,42.9989726000058,None,d,001,2020_Oct_06_1130,piloto1,2020.2.3,59.91945626743336,
1000,0.0,imagenes\Brownie.jpg,0.17000143351927688,None,0,0,0,3,0,18,18,3,43.17301576000755,43.17647980002221,43.17028210000717,None,3.4934895833333335,0.09638360000099055,43.17028210000717,None,d,001,2020_Oct_06_1130,piloto1,2020.2.3,59.91945626743336,
1000,0.0,imagenes\Uvas.jpg,0.7734382152670648,None,0,0,0,3,0,19,19,19,43.305919380020356,43.314803800021764,43.30824460001895,None,3.4934895833333335,0.12448369999765418,43.30824460001895,None,d,001,2020_Oct_06_1130,piloto1,2020.2.3,59.91945626743336,
1000,0.0,,,,0,0,0,3,,,,,,,,,,,,,d,001,2020_Oct_06_1130,piloto1,2020.2.3,59.91945626743336,
1500,0.02,imagenes\Papas-limon.jpg,0.020692288100133793,None,0,1,1,1,0,0,0,14,43.47248388000881,None,43.47284820000641,None,3.4934895833333335,0.09350750001613051,43.47284820000641,None,d,001,2020_Oct_06_1130,piloto1,2020.2.3,59.91945626743336,
1500,0.02,imagenes\Popetas.jpg,0.07650200324054446,None,0,1,1,1,0,1,1,16,43.62248237001186,43.62559660000261,43.620287600002484,None,3.4934895833333335,0.11190419999184087,43.620287600002484,None,d,001,2020_Oct_06_1130,piloto1,2020.2.3,59.91945626743336,
1500,0.02,imagenes\Papas-pollo.jpg,0.6683114062971784,None,0,1,1,1,0,2,2,15,43.75604999001662,43.772378599998774,43.75930830001016,None,3.4934895833333335,0.272086400014814,43.75930830001016,None,d,001,2020_Oct_06_1130,piloto1,2020.2.3,59.91945626743336,
1500,0.02,imagenes\Galletas-festival.jpg,0.36121121246191135,None,0,1,1,1,0,3,3,7,44.072471080004476,None,44.0695472000225,None,3.4934895833333335,0.11315960000501946,44.0695472000225,None,d,001,2020_Oct_06_1130,piloto1,2020.2.3,59.91945626743336,
1500,0.02,imagenes\Brownie.jpg,0.17000143351927688,None,0,1,1,1,0,4,4,3,44.23911097000528,44.24020010000095,44.23352860001614,None,3.4934895833333335,0.11626770001021214,44.23352860001614,None,d,001,2020_Oct_06_1130,piloto1,2020.2.3,59.91945626743336,
1500,0.02,imagenes\Yogurt-alpina.jpg,0.21540995091807813,None,0,1,1,1,0,5,5,18,44.38921688002884,None,44.380419200024335,None,3.4934895833333335,0.10242629999993369,44.380419200024335,None,d,001,2020_Oct_06_1130,piloto1,2020.2.3,59.91945626743336,
1500,0.02,imagenes\Rosquitas (1).jpg,0.3035383390851263,None,0,1,1,1,0,6,6,17,44.52237318002736,44.52762000000803,44.52195730002131,None,3.4934895833333335,0.12696059999871068,44.52195730002131,None,d,001,2020_Oct_06_1130,piloto1,2020.2.3,59.91945626743336,
1500,0.02,imagenes\Galletas Tosh.jpg,0.478088790487872,None,0,1,1,1,0,7,7,6,44.68937278001104,None,44.695332100003725,None,3.4934895833333335,0.1050227000087034,44.695332100003725,None,d,001,2020_Oct_06_1130,piloto1,2020.2.3,59.91945626743336,
1500,0.02,imagenes\Mango.jpeg,0.555669112372461,None,0,1,1,1,0,8,8,10,44.839084680023376,None,44.83232539999881,None,3.4934895833333335,0.13322290001087822,44.83232539999881,None,d,001,2020_Oct_06_1130,piloto1,2020.2.3,59.91945626743336,
1500,0.02,imagenes\Chocoramo.jfif.jpg,0.7789437122019539,None,0,1,1,1,0,9,9,4,45.00568088002038,45.01631730000372,45.00929420001921,None,3.4934895833333335,0.12375359999714419,45.00929420001921,None,d,001,2020_Oct_06_1130,piloto1,2020.2.3,59.91945626743336,
1500,0.02,imagenes\Nutella (1).jpg,0.5277483225747329,None,0,1,1,1,0,10,10,12,45.15565989000898,45.17219650000334,45.16090460002306,None,3.4934895833333335,0.13814819999970496,45.16090460002306,None,d,001,2020_Oct_06_1130,piloto1,2020.2.3,59.91945626743336,
1500,0.02,imagenes\Uvas.jpg,0.7734382152670648,None,0,1,1,1,0,11,11,19,45.322375090009885,45.33899460002431,45.329198699997505,None,3.4934895833333335,0.11964819999411702,45.329198699997505,None,d,001,2020_Oct_06_1130,piloto1,2020.2.3,59.91945626743336,
1500,0.02,imagenes\Manzana.jpg,0.5168162194437935,None,0,1,1,1,0,12,12,11,45.48953188001761,None,45.493079500010936,None,3.4934895833333335,0.10689520000596531,45.493079500010936,None,d,001,2020_Oct_06_1130,piloto1,2020.2.3,59.91945626743336,
1500,0.02,imagenes\Kiwi.jpg,0.5893907384852061,None,0,1,1,1,0,13,13,8,45.62236199001491,None,45.62419490001048,None,3.4934895833333335,0.12570060000871308,45.62419490001048,None,d,001,2020_Oct_06_1130,piloto1,2020.2.3,59.91945626743336,
1500,0.02,imagenes\Papas-naturales.jpg,0.15856838916280946,None,0,1,1,1,0,14,14,13,45.77252249000885,45.78881710002315,45.77782830002252,None,3.4934895833333335,0.13809130000299774,45.77782830002252,None,d,001,2020_Oct_06_1130,piloto1,2020.2.3,59.91945626743336,
1500,0.02,imagenes\bon-bon-bun.jpg,0.7387922093313524,None,0,1,1,1,0,15,15,2,45.95562428000849,None,45.95771800001967,None,3.4934895833333335,0.12581609998596832,45.95771800001967,None,d,001,2020_Oct_06_1130,piloto1,2020.2.3,59.91945626743336,
1500,0.02,imagenes\Alpinito.jpg,0.4515332417045813,None,0,1,1,1,0,16,16,0,46.13909097002179,46.14217500001541,46.135125500004506,None,3.4934895833333335,0.06423649998032488,46.135125500004506,None,d,001,2020_Oct_06_1130,piloto1,2020.2.3,59.91945626743336,
1500,0.02,imagenes\Banano.jpeg,0.651633055306917,None,0,1,1,1,0,17,17,1,46.239131980028475,None,46.23296640001354,None,3.4934895833333335,0.1151990000216756,46.23296640001354,None,d,001,2020_Oct_06_1130,piloto1,2020.2.3,59.91945626743336,
1500,0.02,imagenes\Leche-de-almendras.jpg,0.36073876480313727,None,0,1,1,1,0,18,18,9,46.43949175001762,None,46.441404200013494,None,3.4934895833333335,0.059208399994531646,46.441404200013494,None,d,001,2020_Oct_06_1130,piloto1,2020.2.3,59.91945626743336,
1500,0.02,imagenes\Croissant.jpg,0.6152458173421255,None,0,1,1,1,0,19,19,5,46.53938168002642,46.552135000005364,46.54591200000141,None,3.4934895833333335,0.12071459999424405,46.54591200000141,None,d,001,2020_Oct_06_1130,piloto1,2020.2.3,59.91945626743336,
1500,0.02,,,,0,1,1,1,,,,,,,,,,,,,d,001,2020_Oct_06_1130,piloto1,2020.2.3,59.91945626743336,
1000,0.02,imagenes\Rosquitas (1).jpg,0.3035383390851263,None,0,2,2,2,0,0,0,17,46.722427870010144,None,46.71959849999985,None,3.4934895833333335,0.11350740000489168,46.71959849999985,None,d,001,2020_Oct_06_1130,piloto1,2020.2.3,59.91945626743336,
1000,0.02,imagenes\Nutella (1).jpg,0.5277483225747329,None,0,2,2,2,0,1,1,12,46.855558290003685,46.87211890000617,46.86073340001167,None,3.4934895833333335,0.12093589999130927,46.86073340001167,None,d,001,2020_Oct_06_1130,piloto1,2020.2.3,59.91945626743336,
1000,0.02,imagenes\Uvas.jpg,0.7734382152670648,None,0,2,2,2,0,2,2,19,47.02236728001154,None,47.01306420000037,None,3.4934895833333335,0.11995250001200475,47.01306420000037,None,d,001,2020_Oct_06_1130,piloto1,2020.2.3,59.91945626743336,
1000,0.02,imagenes\Mango.jpeg,0.555669112372461,None,0,2,2,2,0,3,3,10,47.172218980011536,47.17210380002507,47.16587080000318,None,3.4934895833333335,0.09984549999353476,47.16587080000318,None,d,001,2020_Oct_06_1130,piloto1,2020.2.3,59.91945626743336,
1000,0.02,imagenes\bon-bon-bun.jpg,0.7387922093313524,None,0,2,2,2,0,4,4,2,47.30573018000578,None,47.309485800011316,None,3.4934895833333335,0.10718209997867234,47.309485800011316,None,d,001,2020_Oct_06_1130,piloto1,2020.2.3,59.91945626743336,
1000,0.02,imagenes\Banano.jpeg,0.651633055306917,None,0,2,2,2,0,5,5,1,47.455495280015754,47.4553899000166,47.44840110000223,None,3.4934895833333335,0.1330659000086598,47.44840110000223,None,d,001,2020_Oct_06_1130,piloto1,2020.2.3,59.91945626743336,
1000,0.02,imagenes\Popetas.jpg,0.07650200324054446,None,0,2,2,2,0,6,6,16,47.639055770015695,None,47.63730440000654,None,3.4934895833333335,0.12743480000062846,47.63730440000654,None,d,001,2020_Oct_06_1130,piloto1,2020.2.3,59.91945626743336,
1000,0.02,imagenes\Alpinito.jpg,0.4515332417045813,None,0,2,2,2,0,7,7,0,47.82256427000684,None,47.81642740001553,None,3.4934895833333335,0.08370399998966604,47.81642740001553,None,d,001,2020_Oct_06_1130,piloto1,2020.2.3,59.91945626743336,
1000,0.02,imagenes\Papas-limon.jpg,0.020692288100133793,None,0,2,2,2,0,8,8,14,47.922309190008676,None,47.9269802000199,None,3.4934895833333335,0.10577890000422485,47.9269802000199,None,d,001,2020_Oct_06_1130,piloto1,2020.2.3,59.91945626743336,
1000,0.02,imagenes\Yogurt-alpina.jpg,0.21540995091807813,None,0,2,2,2,0,9,9,18,48.07233408000903,None,48.063222400000086,None,3.4934895833333335,0.13498229999095201,48.063222400000086,None,d,001,2020_Oct_06_1130,piloto1,2020.2.3,59.91945626743336,
1000,0.02,imagenes\Kiwi.jpg,0.5893907384852061,None,0,2,2,2,0,10,10,8,48.222268390006505,48.238833700015675,48.222272500017425,None,3.4934895833333335,0.12675080000190064,48.222272500017425,None,d,001,2020_Oct_06_1130,piloto1,2020.2.3,59.91945626743336,
1000,0.02,imagenes\Galletas Tosh.jpg,0.478088790487872,None,0,2,2,2,0,11,11,6,48.38886598000536,None,48.39367499999935,None,3.4934895833333335,0.10570189999998547,48.39367499999935,None,d,001,2020_Oct_06_1130,piloto1,2020.2.3,59.91945626743336,
1000,0.02,imagenes\Chocoramo.jfif.jpg,0.7789437122019539,None,0,2,2,2,0,12,12,4,48.538899980025604,48.54790380000486,48.542058899998665,None,3.4934895833333335,0.10707769999862649,48.542058899998665,None,d,001,2020_Oct_06_1130,piloto1,2020.2.3,59.91945626743336,
1000,0.02,imagenes\Papas-naturales.jpg,0.15856838916280946,None,0,2,2,2,0,13,13,13,48.67218869002245,48.688790000014706,48.67852340001264,None,3.4934895833333335,0.13638050001463853,48.67852340001264,None,d,001,2020_Oct_06_1130,piloto1,2020.2.3,59.91945626743336,
1000,0.02,imagenes\Galletas-festival.jpg,0.36121121246191135,None,0,2,2,2,0,14,14,7,48.85544158000849,None,48.85567190000438,None,3.4934895833333335,0.09466830000746995,48.85567190000438,None,d,001,2020_Oct_06_1130,piloto1,2020.2.3,59.91945626743336,
1000,0.02,imagenes\Leche-de-almendras.jpg,0.36073876480313727,None,0,2,2,2,0,15,15,9,49.02225666002487,None,49.02022560001933,None,3.4934895833333335,0.1298421999963466,49.02022560001933,None,d,001,2020_Oct_06_1130,piloto1,2020.2.3,59.91945626743336,
1000,0.02,imagenes\Papas-pollo.jpg,0.6683114062971784,None,0,2,2,2,0,16,16,15,49.17298199000943,None,49.177333600004204,None,3.4934895833333335,0.10575749998679385,49.177333600004204,None,d,001,2020_Oct_06_1130,piloto1,2020.2.3,59.91945626743336,
1000,0.02,imagenes\Manzana.jpg,0.5168162194437935,None,0,2,2,2,0,17,17,11,49.3221038800024,None,49.32350840000436,None,3.4934895833333335,0.10739859999739565,49.32350840000436,None,d,001,2020_Oct_06_1130,piloto1,2020.2.3,59.91945626743336,
1000,0.02,imagenes\Croissant.jpg,0.6152458173421255,None,0,2,2,2,0,18,18,5,49.472204880008945,49.485068400012096,49.47828880001907,None,3.4934895833333335,0.1204738000233192,49.47828880001907,None,d,001,2020_Oct_06_1130,piloto1,2020.2.3,59.91945626743336,
1000,0.02,imagenes\Brownie.jpg,0.17000143351927688,None,0,2,2,2,0,19,19,3,49.65602047003049,None,49.64857590000611,None,3.4934895833333335,0.0837652999907732,49.64857590000611,None,d,001,2020_Oct_06_1130,piloto1,2020.2.3,59.91945626743336,
1000,0.02,,,,0,2,2,2,,,,,,,,,,,,,d,001,2020_Oct_06_1130,piloto1,2020.2.3,59.91945626743336,
400,0.02,imagenes\Kiwi.jpg,0.5893907384852061,None,0,3,3,0,0,0,0,8,49.77220598000568,49.77574480001931,49.767741400020896,None,3.4934895833333335,0.11444629999459721,49.767741400020896,None,d,001,2020_Oct_06_1130,piloto1,2020.2.3,59.91945626743336,
400,0.02,imagenes\Galletas Tosh.jpg,0.478088790487872,None,0,3,3,0,0,1,1,6,49.92221418000409,49.9344724000257,49.927391400007764,None,3.4934895833333335,0.12197140001808293,49.927391400007764,None,d,001,2020_Oct_06_1130,piloto1,2020.2.3,59.91945626743336,
400,0.02,imagenes\Alpinito.jpg,0.4515332417045813,None,0,3,3,0,0,2,2,0,50.10590997001564,None,50.098516400001245,None,4.372395833333333,0.683418900007382,50.098516400001245,None,d,001,2020_Oct_06_1130,piloto1,2020.2.3,59.91945626743336,
400,0.02,imagenes\Banano.jpeg,0.651633055306917,None,0,3,3,0,0,3,3,1,50.82222688000766,None,50.815446799999336,None,5.5703125,0.8344786999805365,50.815446799999336,None,d,001,2020_Oct_06_1130,piloto1,2020.2.3,59.91945626743336,
400,0.02,imagenes\Brownie.jpg,0.17000143351927688,None,0,3,3,0,0,4,4,3,51.70548677002953,51.70649330000742,51.69880579999881,None,2.809895833333333,0.5997083999973256,51.69880579999881,None,d,001,2020_Oct_06_1130,piloto1,2020.2.3,59.91945626743336,
400,0.02,imagenes\Rosquitas (1).jpg,0.3035383390851263,None,0,3,3,0,0,5,5,17,52.33911978002871,52.34501350001665,52.33969750002143,None,1.7682291666666665,0.3598366000223905,52.33969750002143,None,d,001,2020_Oct_06_1130,piloto1,2020.2.3,59.91945626743336,
400,0.02,imagenes\Yogurt-alpina.jpg,0.21540995091807813,None,0,3,3,0,0,6,6,18,52.72194029001112,52.73856890000752,52.728921400004765,None,4.658854166666667,0.3361894999979995,52.728921400004765,None,d,001,2020_Oct_06_1130,piloto1,2020.2.3,59.91945626743336,
400,0.02,imagenes\Mango.jpeg,0.555669112372461,None,0,3,3,0,0,7,7,10,53.10546448000824,None,53.099829100014176,None,5.453125,0.4166626999794971,53.099829100014176,None,d,001,2020_Oct_06_1130,piloto1,2020.2.3,59.91945626743336,
400,0.02,imagenes\Chocoramo.jfif.jpg,0.7789437122019539,None,0,3,3,0,0,8,8,4,53.555378380004555,53.56544540001778,53.55868320001173,None,3.0572916666666665,0.3739934000186622,53.55868320001173,None,d,001,2020_Oct_06_1130,piloto1,2020.2.3,59.91945626743336,
400,0.02,imagenes\Popetas.jpg,0.07650200324054446,None,0,3,3,0,0,9,9,16,53.98862617000996,None,53.99541290002526,None,4.157552083333333,0.38849010001285933,53.99541290002526,None,d,001,2020_Oct_06_1130,piloto1,2020.2.3,59.91945626743336,
400,0.02,imagenes\Manzana.jpg,0.5168162194437935,None,0,3,3,0,0,10,10,11,54.422402780014096,54.4352721000032,54.428339500009315,None,3.1419270833333335,0.2381539000198245,54.428339500009315,None,d,001,2020_Oct_06_1130,piloto1,2020.2.3,59.91945626743336,
400,0.02,imagenes\Papas-naturales.jpg,0.15856838916280946,None,0,3,3,0,0,11,11,13,54.68867179000809,None,54.69582560000708,None,4.515625,0.40362610001466237,54.69582560000708,None,d,001,2020_Oct_06_1130,piloto1,2020.2.3,59.91945626743336,
400,0.02,imagenes\bon-bon-bun.jpg,0.7387922093313524,None,0,3,3,0,0,12,12,2,55.138560780009726,55.14776500000153,55.14112520002527,None,4.522135416666667,0.1914927999896463,55.14112520002527,None,d,001,2020_Oct_06_1130,piloto1,2020.2.3,59.91945626743336,
400,0.02,imagenes\Papas-pollo.jpg,0.6683114062971784,None,0,3,3,0,0,13,13,15,55.35517669000838,None,55.360166200000094,None,3.1614583333333335,0.1733537999971304,55.360166200000094,None,d,001,2020_Oct_06_1130,piloto1,2020.2.3,59.91945626743336,
400,0.02,imagenes\Uvas.jpg,0.7734382152670648,None,0,3,3,0,0,14,14,19,55.572034180024644,None,55.562676700006705,None,4.3203125,0.2351986999856308,55.562676700006705,None,d,001,2020_Oct_06_1130,piloto1,2020.2.3,59.91945626743336,
400,0.02,imagenes\Croissant.jpg,0.6152458173421255,None,0,3,3,0,0,15,15,5,55.85529467001616,55.85241950000636,55.84606260000146,None,4.84765625,0.18605200000456534,55.84606260000146,None,d,001,2020_Oct_06_1130,piloto1,2020.2.3,59.91945626743336,
400,0.02,imagenes\Nutella (1).jpg,0.5277483225747329,None,0,3,3,0,0,16,16,12,56.055140190004025,None,56.06023010000354,None,5.375,0.28849669999908656,56.06023010000354,None,d,001,2020_Oct_06_1130,piloto1,2020.2.3,59.91945626743336,
400,0.02,imagenes\Galletas-festival.jpg,0.36121121246191135,None,0,3,3,0,0,17,17,7,56.38853718000465,None,56.387066800001776,None,3.87109375,0.3288509999983944,56.387066800001776,None,d,001,2020_Oct_06_1130,piloto1,2020.2.3,59.91945626743336,
400,0.02,imagenes\Papas-limon.jpg,0.020692288100133793,None,0,3,3,0,0,18,18,14,56.73864429001988,56.755062100011855,56.74269179999828,None,4.561197916666667,0.38983319999533705,56.74269179999828,None,d,001,2020_Oct_06_1130,piloto1,2020.2.3,59.91945626743336,
400,0.02,imagenes\Leche-de-almendras.jpg,0.36073876480313727,None,0,3,3,0,0,19,19,9,57.20514496000833,None,57.202647900005104,None,3.65625,0.2807862999907229,57.202647900005104,None,d,001,2020_Oct_06_1130,piloto1,2020.2.3,59.91945626743336,
400,0.02,,,,0,3,3,0,,,,,,,,,,,,,d,001,2020_Oct_06_1130,piloto1,2020.2.3,59.91945626743336,
