Hertz,volumen,Imagenes,Random,Correcto,trials.thisRepN,trials.thisTrialN,trials.thisN,trials.thisIndex,trials_2.thisRepN,trials_2.thisTrialN,trials_2.thisN,trials_2.thisIndex,sound_3.started,sound_3.stopped,Sonido.started,Sonido.stopped,image_2.started,image_2.stopped,slider_2.response,slider_2.rt,slider_2.started,slider_2.stopped,text.started,text.stopped,text_4.started,text_4.stopped,participant,session,date,expName,psychopyVersion,frameRate,
1500,0.02,imagenes/Yogurt-alpina.jpg,0.5445152936222175,None,0,0,0,1,0,0,0,18,8.922178799868561,None,19.005537800025195,None,20.018358399975114,None,3.630208333333333,1.8300993000157177,20.018358399975114,None,,,,,g,001,2020_Oct_27_1212,piloto1,2020.2.3,59.91371227018931,
1500,0.02,imagenes/Leche-de-almendras.jpg,0.3886559457994673,None,0,0,0,1,0,1,1,9,,,20.93907151997555,21.93987870006822,21.93987870006822,None,4.57421875,1.6381555000552908,21.93987870006822,None,,,,,g,001,2020_Oct_27_1212,piloto1,2020.2.3,59.91371227018931,
1500,0.02,imagenes/Rollos de canela.png,0.2610974409574519,None,0,0,0,1,0,2,2,34,,,22.622743440046904,None,23.622549299965613,None,3.4609375,1.4870746999513358,23.622549299965613,None,,,,,g,001,2020_Oct_27_1212,piloto1,2020.2.3,59.91371227018931,
1500,0.02,imagenes/Canelazo.png,0.6730479360767814,None,0,0,0,1,0,3,3,22,,,24.18899347996339,25.189125700038858,25.172770100063644,None,4.0078125,1.4144494999200106,25.172770100063644,None,,,,,g,001,2020_Oct_27_1212,piloto1,2020.2.3,59.91371227018931,
1500,0.02,imagenes/Manzana.jpg,0.4048420327008191,None,0,0,0,1,0,4,4,11,,,25.63883433998562,26.639069200027734,26.639069200027734,None,3.565104166666667,1.3429802999598905,26.639069200027734,None,,,,,g,001,2020_Oct_27_1212,piloto1,2020.2.3,59.91371227018931,
1500,0.02,imagenes/Nutella (1).jpg,0.8826531883338111,None,0,0,0,1,0,5,5,12,,,27.00557861998677,28.005354200024158,28.005354200024158,None,4.372395833333333,1.388463900075294,28.005354200024158,None,,,,,g,001,2020_Oct_27_1212,piloto1,2020.2.3,59.91371227018931,
1500,0.02,imagenes/Galletas-festival.jpg,0.11306074364032936,None,0,0,0,1,0,6,6,7,,,28.438345140032467,29.438525600009598,29.422453499981202,None,3.838541666666667,1.3507554000243545,29.422453499981202,None,,,,,g,001,2020_Oct_27_1212,piloto1,2020.2.3,59.91371227018931,
1500,0.02,imagenes/Kiwi.jpg,0.3929145850942286,None,0,0,0,1,0,7,7,8,,,29.805442820047027,None,30.80520050006453,None,4.522135416666667,1.3415128999622539,30.80520050006453,None,,,,,g,001,2020_Oct_27_1212,piloto1,2020.2.3,59.91371227018931,
1500,0.02,imagenes/Papas-pollo.jpg,0.08373485417902837,None,0,0,0,1,0,8,8,15,,,31.17166972006671,32.17221580003388,32.17221580003388,None,3.819010416666667,1.3199279999826103,32.17221580003388,None,,,,,g,001,2020_Oct_27_1212,piloto1,2020.2.3,59.91371227018931,
1500,0.02,imagenes/Brocoli.jpg,0.24293074945529525,None,0,0,0,1,0,9,9,21,,,32.52161042005755,None,33.52221359999385,None,4.333333333333333,1.3272401000140235,33.52221359999385,None,,,,,g,001,2020_Oct_27_1212,piloto1,2020.2.3,59.91371227018931,
1500,0.02,imagenes/Brownie.jpg,0.2838924074864093,None,0,0,0,1,0,10,10,3,,,33.88818444004282,34.888947000028566,34.888947000028566,None,3.3763020833333335,1.4402291000587866,34.888947000028566,None,,,,,g,001,2020_Oct_27_1212,piloto1,2020.2.3,59.91371227018931,
1500,0.02,imagenes/Rollo de queso.png,0.9201641182756888,None,0,0,0,1,0,11,11,33,,,35.37172084006015,None,36.36085419997107,None,4.014322916666667,1.3629864000249654,36.36085419997107,None,,,,,g,001,2020_Oct_27_1212,piloto1,2020.2.3,59.91371227018931,
1500,0.02,imagenes/Papas-limon.jpg,0.5280798509093595,None,0,0,0,1,0,12,12,14,,,36.75487052006647,None,37.7551043999847,None,2.5625,1.3223353000357747,37.7551043999847,None,,,,,g,001,2020_Oct_27_1212,piloto1,2020.2.3,59.91371227018931,
1500,0.02,imagenes/Muffin de banano.png,0.9610615059009696,None,0,0,0,1,0,13,13,25,,,38.13809615995269,None,39.12193170003593,None,3.36328125,1.2858560000313446,39.12193170003593,None,,,,,g,001,2020_Oct_27_1212,piloto1,2020.2.3,59.91371227018931,
1500,0.02,imagenes/Pepinillos.png,0.0038966441241518046,None,0,0,0,1,0,14,14,28,,,39.45489884000271,None,40.454950500046834,None,2.2890625,1.2735169999068603,40.454950500046834,None,,,,,g,001,2020_Oct_27_1212,piloto1,2020.2.3,59.91371227018931,
1500,0.02,imagenes/Pizzetas.png,0.3295951589873042,None,0,0,0,1,0,15,15,32,,,40.77165644005872,None,41.755156100029126,None,3.75390625,1.329818099969998,41.755156100029126,None,,,,,g,001,2020_Oct_27_1212,piloto1,2020.2.3,59.91371227018931,
1500,0.02,imagenes/pistachos.jpg,0.7450869742741464,None,0,0,0,1,0,16,16,30,,,42.12120002005249,None,43.10502360004466,None,4.483072916666667,1.2965132999233902,43.10502360004466,None,,,,,g,001,2020_Oct_27_1212,piloto1,2020.2.3,59.91371227018931,
1500,0.02,imagenes/Banano.jpeg,0.2267656716538785,None,0,0,0,1,0,17,17,1,,,43.45442974003963,None,44.43830360006541,None,3.421875,1.4186373999109492,44.43830360006541,None,,,,,g,001,2020_Oct_27_1212,piloto1,2020.2.3,59.91371227018931,
1500,0.02,imagenes/Pizza.png,0.21192443516553439,None,0,0,0,1,0,18,18,31,,,44.888005020073614,45.88818380003795,45.88818380003795,None,2.725260416666667,1.3908152000512928,45.88818380003795,None,,,,,g,001,2020_Oct_27_1212,piloto1,2020.2.3,59.91371227018931,
1500,0.02,imagenes/Uvas.jpg,0.4959291644143431,None,0,0,0,1,0,19,19,19,,,46.304689820017664,None,47.30455390003044,None,3.79296875,1.3901944000972435,47.30455390003044,None,,,,,g,001,2020_Oct_27_1212,piloto1,2020.2.3,59.91371227018931,
1500,0.02,imagenes/Popetas.jpg,0.9621625733302204,None,0,0,0,1,0,20,20,16,,,47.73776703998446,48.73838420002721,48.73838420002721,None,4.489583333333333,1.4201622999971732,48.73838420002721,None,,,,,g,001,2020_Oct_27_1212,piloto1,2020.2.3,59.91371227018931,
1500,0.02,imagenes/Papas picantes.jpg,0.524978898672612,None,0,0,0,1,0,21,21,27,,,49.187870720028876,50.18755100003909,50.171019200002775,None,3.643229166666667,1.327321800054051,50.171019200002775,None,,,,,g,001,2020_Oct_27_1212,piloto1,2020.2.3,59.91371227018931,
1500,0.02,imagenes/Chocoramo.jfif.jpg,0.7425528559884101,None,0,0,0,1,0,22,22,4,,,50.554330239957196,None,51.55454390007071,None,4.170572916666667,1.3072266000090167,51.55454390007071,None,,,,,g,001,2020_Oct_27_1212,piloto1,2020.2.3,59.91371227018931,
1500,0.02,imagenes/Pescadito.png,0.7172825011486081,None,0,0,0,1,0,23,23,29,,,51.904275039979254,None,52.88757550006267,None,3.721354166666667,1.3503984999842942,52.88757550006267,None,,,,,g,001,2020_Oct_27_1212,piloto1,2020.2.3,59.91371227018931,
1500,0.02,imagenes/Coliflor.jpg,0.3640740491088985,None,0,0,0,1,0,24,24,24,,,53.27153212004341,None,54.271379000041634,None,4.125,1.3758155000396073,54.271379000041634,None,,,,,g,001,2020_Oct_27_1212,piloto1,2020.2.3,59.91371227018931,
1500,0.02,imagenes/Almojabanas.png,0.6725051200713246,None,0,0,0,1,0,25,25,20,,,54.687162439990786,55.687882199999876,55.687882199999876,None,3.5390625,1.3906450000358745,55.687882199999876,None,,,,,g,001,2020_Oct_27_1212,piloto1,2020.2.3,59.91371227018931,
1500,0.02,imagenes/Mango.jpeg,0.4341155418941499,None,0,0,0,1,0,26,26,10,,,56.10430392003618,57.104078000062145,57.104078000062145,None,4.307291666666667,1.5865229000337422,57.104078000062145,None,,,,,g,001,2020_Oct_27_1212,piloto1,2020.2.3,59.91371227018931,
1500,0.02,imagenes/Croissant.jpg,0.5824748589948932,None,0,0,0,1,0,27,27,5,,,57.75378406005911,None,58.73745300003793,None,3.526041666666667,1.4841200000373647,58.73745300003793,None,,,,,g,001,2020_Oct_27_1212,piloto1,2020.2.3,59.91371227018931,
1500,0.02,imagenes/bon-bon-bun.jpg,0.7417452724056987,None,0,0,0,1,0,28,28,2,,,59.27106024005916,None,60.25439490005374,None,4.61328125,1.5972395000280812,60.25439490005374,None,,,,,g,001,2020_Oct_27_1212,piloto1,2020.2.3,59.91371227018931,
1500,0.02,imagenes/Alpinito.jpg,0.7416150880621702,None,0,0,0,1,0,29,29,0,,,60.90417824005708,None,61.90389179997146,None,3.506510416666667,1.5915843999246135,61.90389179997146,None,,,,,g,001,2020_Oct_27_1212,piloto1,2020.2.3,59.91371227018931,
1500,0.02,imagenes/Rosquitas (1).jpg,0.024090340010977873,None,0,0,0,1,0,30,30,17,,,62.53704804002773,63.53709080000408,63.5205377000384,None,4.600260416666667,1.6136119000148028,63.5205377000384,None,,,,,g,001,2020_Oct_27_1212,piloto1,2020.2.3,59.91371227018931,
1500,0.02,imagenes/Papas-naturales.jpg,0.37590629905521566,None,0,0,0,1,0,31,31,13,,,64.17021472004708,65.1705101999687,65.1705101999687,None,3.55859375,1.4924710999475792,65.1705101999687,None,,,,,g,001,2020_Oct_27_1212,piloto1,2020.2.3,59.91371227018931,
1500,0.02,imagenes/salchicha hojaldrada.jpg,0.7119773165481526,None,0,0,0,1,0,32,32,35,,,65.68675952006598,66.68701450002845,66.67017499997746,None,4.528645833333333,1.7121089999563992,66.67017499997746,None,,,,,g,001,2020_Oct_27_1212,piloto1,2020.2.3,59.91371227018931,
1500,0.02,imagenes/Galletas Tosh.jpg,0.9129693753280027,None,0,0,0,1,0,33,33,6,,,67.4366980400635,None,68.42059240001254,None,3.4869791666666665,1.5111859999597073,68.42059240001254,None,,,,,g,001,2020_Oct_27_1212,piloto1,2020.2.3,59.91371227018931,
1500,0.02,imagenes/Chontaduro.png,0.8693553300418813,None,0,0,0,1,0,34,34,23,,,68.97015131996014,69.97033260005992,69.97033260005992,None,4.359375,1.503889900050126,69.97033260005992,None,,,,,g,001,2020_Oct_27_1212,piloto1,2020.2.3,59.91371227018931,
1500,0.02,imagenes/Pandebono.png,0.8988574378129985,None,0,0,0,1,0,35,35,26,,,70.52017334005797,None,71.50448560004588,None,3.571614583333333,1.4631769000552595,71.50448560004588,None,,,,,g,001,2020_Oct_27_1212,piloto1,2020.2.3,59.91371227018931,
1500,0.02,,,,0,0,0,1,,,,,,,,,,,,,,,,,,,g,001,2020_Oct_27_1212,piloto1,2020.2.3,59.91371227018931,
1000,0.02,imagenes/salchicha hojaldrada.jpg,0.7119773165481526,None,0,1,1,2,0,0,0,35,,,72.01989864006174,None,72.98647570004687,None,4.10546875,1.4028107000049204,72.98647570004687,None,,,,,g,001,2020_Oct_27_1212,piloto1,2020.2.3,59.91371227018931,
1000,0.02,imagenes/Banano.jpeg,0.2267656716538785,None,0,1,1,2,0,1,1,1,,,73.4363496199716,74.43646470003296,74.43646470003296,None,3.786458333333333,1.3211386000039056,74.43646470003296,None,,,,,g,001,2020_Oct_27_1212,piloto1,2020.2.3,59.91371227018931,
1000,0.02,imagenes/Rollos de canela.png,0.2610974409574519,None,0,1,1,2,0,2,2,34,,,74.80334053998814,None,75.78646870004013,None,4.170572916666667,1.2334462000289932,75.78646870004013,None,,,,,g,001,2020_Oct_27_1212,piloto1,2020.2.3,59.91371227018931,
1000,0.02,imagenes/Chocoramo.jfif.jpg,0.7425528559884101,None,0,1,1,2,0,3,3,4,,,76.0862132600043,None,77.07032389997039,None,4.365885416666667,1.144440299947746,77.07032389997039,None,,,,,g,001,2020_Oct_27_1212,piloto1,2020.2.3,59.91371227018931,
1000,0.02,imagenes/Pepinillos.png,0.0038966441241518046,None,0,1,1,2,0,4,4,28,,,77.27010904003401,None,78.2537905999925,None,3.688802083333333,1.212393100024201,78.2537905999925,None,,,,,g,001,2020_Oct_27_1212,piloto1,2020.2.3,59.91371227018931,
1000,0.02,imagenes/Yogurt-alpina.jpg,0.5445152936222175,None,0,1,1,2,0,5,5,18,,,78.51942603995559,79.51987930003088,79.5033583000768,None,4.18359375,1.2511492999037728,79.5033583000768,None,,,,,g,001,2020_Oct_27_1212,piloto1,2020.2.3,59.91371227018931,
1000,0.02,imagenes/Chontaduro.png,0.8693553300418813,None,0,1,1,2,0,6,6,23,,,79.78640031998512,80.78623830003198,80.78623830003198,None,4.02734375,1.2698093000799417,80.78623830003198,None,,,,,g,001,2020_Oct_27_1212,piloto1,2020.2.3,59.91371227018931,
1000,0.02,imagenes/Papas picantes.jpg,0.524978898672612,None,0,1,1,2,0,7,7,27,,,81.085994319967,82.08596759999637,82.06946290004998,None,4.001302083333333,1.2470389000372961,82.06946290004998,None,,,,,g,001,2020_Oct_27_1212,piloto1,2020.2.3,59.91371227018931,
1000,0.02,imagenes/Kiwi.jpg,0.3929145850942286,None,0,1,1,2,0,8,8,8,,,82.35262092002668,83.35294680006336,83.33601129997987,None,4.001302083333333,1.2947282999521121,83.33601129997987,None,,,,,g,001,2020_Oct_27_1212,piloto1,2020.2.3,59.91371227018931,
1000,0.02,imagenes/Pandebono.png,0.8988574378129985,None,0,1,1,2,0,9,9,26,,,83.68600894005505,84.68592189997435,84.66989090002608,None,4.001302083333333,1.331058599986136,84.66989090002608,None,,,,,g,001,2020_Oct_27_1212,piloto1,2020.2.3,59.91371227018931,
1000,0.02,imagenes/Papas-limon.jpg,0.5280798509093595,None,0,1,1,2,0,10,10,14,,,85.03593672006392,86.03599580004811,86.03599580004811,None,4.001302083333333,1.237430699984543,86.03599580004811,None,,,,,g,001,2020_Oct_27_1212,piloto1,2020.2.3,59.91371227018931,
1000,0.02,imagenes/Canelazo.png,0.6730479360767814,None,0,1,1,2,0,11,11,22,,,86.33593715999741,None,87.31954419997055,None,3.5,1.2667133999057114,87.31954419997055,None,,,,,g,001,2020_Oct_27_1212,piloto1,2020.2.3,59.91371227018931,
1000,0.02,imagenes/Muffin de banano.png,0.9610615059009696,None,0,1,1,2,0,12,12,25,,,87.65268275996205,88.6531228000531,88.6531228000531,None,2.66015625,1.2733167000114918,88.6531228000531,None,,,,,g,001,2020_Oct_27_1212,piloto1,2020.2.3,59.91371227018931,
1000,0.02,imagenes/Nutella (1).jpg,0.8826531883338111,None,0,1,1,2,0,13,13,12,,,88.95288462003228,None,89.9528478999855,None,2.171875,1.3432103999657556,89.9528478999855,None,,,,,g,001,2020_Oct_27_1212,piloto1,2020.2.3,59.91371227018931,
1000,0.02,imagenes/Rosquitas (1).jpg,0.024090340010977873,None,0,1,1,2,0,14,14,17,,,90.3359409400262,None,91.3195463999873,None,3.5,1.2623357000993565,91.3195463999873,None,,,,,g,001,2020_Oct_27_1212,piloto1,2020.2.3,59.91371227018931,
1000,0.02,imagenes/Croissant.jpg,0.5824748589948932,None,0,1,1,2,0,15,15,5,,,91.65214625995141,None,92.63578260003123,None,1.6705729166666665,1.3836208999855444,92.63578260003123,None,,,,,g,001,2020_Oct_27_1212,piloto1,2020.2.3,59.91371227018931,
1000,0.02,imagenes/Galletas Tosh.jpg,0.9129693753280027,None,0,1,1,2,0,16,16,6,,,93.06870724000038,94.06948030006606,94.06948030006606,None,2.71875,1.2894148000050336,94.06948030006606,None,,,,,g,001,2020_Oct_27_1212,piloto1,2020.2.3,59.91371227018931,
1000,0.02,imagenes/Mango.jpeg,0.4341155418941499,None,0,1,1,2,0,17,17,10,,,94.4020517400466,None,95.38559299998451,None,3.3567708333333335,1.236373299965635,95.38559299998451,None,,,,,g,001,2020_Oct_27_1212,piloto1,2020.2.3,59.91371227018931,
1000,0.02,imagenes/Galletas-festival.jpg,0.11306074364032936,None,0,1,1,2,0,18,18,7,,,95.66866433999968,96.66867599997204,96.65256050007883,None,3.0377604166666665,1.264342000009492,96.65256050007883,None,,,,,g,001,2020_Oct_27_1212,piloto1,2020.2.3,59.91371227018931,
1000,0.02,imagenes/Almojabanas.png,0.6725051200713246,None,0,1,1,2,0,19,19,20,,,96.96856754000765,97.96929470007308,97.96929470007308,None,2.790364583333333,1.1896957999560982,97.96929470007308,None,,,,,g,001,2020_Oct_27_1212,piloto1,2020.2.3,59.91371227018931,
1000,0.02,imagenes/Brocoli.jpg,0.24293074945529525,None,0,1,1,2,0,20,20,21,,,98.18563752002083,None,99.1853253999725,None,3.3111979166666665,1.224575400003232,99.1853253999725,None,,,,,g,001,2020_Oct_27_1212,piloto1,2020.2.3,59.91371227018931,
1000,0.02,imagenes/Brownie.jpg,0.2838924074864093,None,0,1,1,2,0,21,21,3,,,99.45170374000446,100.45255789998919,100.45255789998919,None,2.9986979166666665,1.3541681000497192,100.45255789998919,None,,,,,g,001,2020_Oct_27_1212,piloto1,2020.2.3,59.91371227018931,
1000,0.02,imagenes/Papas-naturales.jpg,0.37590629905521566,None,0,1,1,2,0,22,22,13,,,100.8355589200277,101.8350902000675,101.8186889999779,None,2.588541666666667,1.2784413000335917,101.8186889999779,None,,,,,g,001,2020_Oct_27_1212,piloto1,2020.2.3,59.91371227018931,
1000,0.02,imagenes/Popetas.jpg,0.9621625733302204,None,0,1,1,2,0,23,23,16,,,102.1685068599647,103.16876300005242,103.15248210006393,None,3.59765625,1.2638340999837965,103.15248210006393,None,,,,,g,001,2020_Oct_27_1212,piloto1,2020.2.3,59.91371227018931,
1000,0.02,imagenes/Pescadito.png,0.7172825011486081,None,0,1,1,2,0,24,24,29,,,103.4682864399627,104.46831140003633,104.45225510001183,None,2.809895833333333,1.267022700048983,104.45225510001183,None,,,,,g,001,2020_Oct_27_1212,piloto1,2020.2.3,59.91371227018931,
1000,0.02,imagenes/Manzana.jpg,0.4048420327008191,None,0,1,1,2,0,25,25,11,,,104.76820443996695,105.7689331000438,105.7689331000438,None,3.5390625,1.3436163000296801,105.7689331000438,None,,,,,g,001,2020_Oct_27_1212,piloto1,2020.2.3,59.91371227018931,
1000,0.02,imagenes/Pizza.png,0.21192443516553439,None,0,1,1,2,0,26,26,31,,,106.13530662001577,107.13484820001759,107.13484820001759,None,2.829427083333333,1.3053447001148015,107.13484820001759,None,,,,,g,001,2020_Oct_27_1212,piloto1,2020.2.3,59.91371227018931,
1000,0.02,imagenes/Coliflor.jpg,0.3640740491088985,None,0,1,1,2,0,27,27,24,,,107.46835452001542,108.4687636999879,108.4687636999879,None,3.421875,1.2711051000515,108.4687636999879,None,,,,,g,001,2020_Oct_27_1212,piloto1,2020.2.3,59.91371227018931,
1000,0.02,imagenes/Rollo de queso.png,0.9201641182756888,None,0,1,1,2,0,28,28,33,,,108.78484814004042,109.78497739997692,109.78497739997692,None,3.98828125,1.242958200047724,109.78497739997692,None,,,,,g,001,2020_Oct_27_1212,piloto1,2020.2.3,59.91371227018931,
1000,0.02,imagenes/Pizzetas.png,0.3295951589873042,None,0,1,1,2,0,29,29,32,,,110.0679069399601,111.0682920999825,111.05192870006431,None,3.4348958333333335,1.2810303999576718,111.05192870006431,None,,,,,g,001,2020_Oct_27_1212,piloto1,2020.2.3,59.91371227018931,
1000,0.02,imagenes/bon-bon-bun.jpg,0.7417452724056987,None,0,1,1,2,0,30,30,2,,,111.38486023999286,None,112.36839199997485,None,3.0377604166666665,1.2637717999750748,112.36839199997485,None,,,,,g,001,2020_Oct_27_1212,piloto1,2020.2.3,59.91371227018931,
1000,0.02,imagenes/Alpinito.jpg,0.7416150880621702,None,0,1,1,2,0,31,31,0,,,112.70126905995421,113.70177000004333,113.70177000004333,None,3.5390625,1.240343700046651,113.70177000004333,None,,,,,g,001,2020_Oct_27_1212,piloto1,2020.2.3,59.91371227018931,
1000,0.02,imagenes/pistachos.jpg,0.7450869742741464,None,0,1,1,2,0,32,32,30,,,113.9681476200698,114.96821640001144,114.95158340001944,None,3.2005208333333335,1.3116558999754488,114.95158340001944,None,,,,,g,001,2020_Oct_27_1212,piloto1,2020.2.3,59.91371227018931,
1000,0.02,imagenes/Papas-pollo.jpg,0.08373485417902837,None,0,1,1,2,0,33,33,15,,,115.3012616199907,None,116.28450189996511,None,3.649739583333333,1.2946706999791786,116.28450189996511,None,,,,,g,001,2020_Oct_27_1212,piloto1,2020.2.3,59.91371227018931,
1000,0.02,imagenes/Leche-de-almendras.jpg,0.3886559457994673,None,0,1,1,2,0,34,34,9,,,116.66778727995698,117.66826780000702,117.65208739996888,None,3.3763020833333335,1.2492233000230044,117.65208739996888,None,,,,,g,001,2020_Oct_27_1212,piloto1,2020.2.3,59.91371227018931,
1000,0.02,imagenes/Uvas.jpg,0.4959291644143431,None,0,1,1,2,0,35,35,19,,,117.95140673995485,None,118.93499029998202,None,3.08984375,1.3016071000602096,118.93499029998202,None,,,,,g,001,2020_Oct_27_1212,piloto1,2020.2.3,59.91371227018931,
1000,0.02,,,,0,1,1,2,,,,,,,,,,,,,,,,,,,g,001,2020_Oct_27_1212,piloto1,2020.2.3,59.91371227018931,
1000,0.0,imagenes/Popetas.jpg,0.9621625733302204,None,0,2,2,3,0,0,0,16,,,119.30150345996954,None,120.28462060005404,None,3.32421875,1.434814800042659,120.28462060005404,None,,,,,g,001,2020_Oct_27_1212,piloto1,2020.2.3,59.91371227018931,
1000,0.0,imagenes/Galletas Tosh.jpg,0.9129693753280027,None,0,2,2,3,0,1,1,6,,,120.76757014002652,121.76759220007807,121.76759220007807,None,3.71484375,1.4724405000451952,121.76759220007807,None,,,,,g,001,2020_Oct_27_1212,piloto1,2020.2.3,59.91371227018931,
1000,0.0,imagenes/Papas picantes.jpg,0.524978898672612,None,0,2,2,3,0,2,2,27,,,122.26795352003538,None,123.33353740000166,None,3.845052083333333,2.0990835999837145,123.33353740000166,None,,,,,g,001,2020_Oct_27_1212,piloto1,2020.2.3,59.91371227018931,
1000,0.0,imagenes/Pizzetas.png,0.3295951589873042,None,0,2,2,3,0,3,3,32,,,124.40244364000392,None,125.38538830005564,None,4.411458333333333,1.4171890000579879,125.38538830005564,None,,,,,g,001,2020_Oct_27_1212,piloto1,2020.2.3,59.91371227018931,
1000,0.0,imagenes/Brownie.jpg,0.2838924074864093,None,0,2,2,3,0,4,4,3,,,125.85153974005954,126.85206060006749,126.85206060006749,None,3.1809895833333335,1.3089628999587148,126.85206060006749,None,,,,,g,001,2020_Oct_27_1212,piloto1,2020.2.3,59.91371227018931,
1000,0.0,imagenes/Alpinito.jpg,0.7416150880621702,None,0,2,2,3,0,5,5,0,,,127.2010845400626,None,128.1842336000409,None,2.516927083333333,1.41212120000273,128.1842336000409,None,,,,,g,001,2020_Oct_27_1212,piloto1,2020.2.3,59.91371227018931,
1000,0.0,imagenes/Yogurt-alpina.jpg,0.5445152936222175,None,0,2,2,3,0,6,6,18,,,128.63422082001344,129.63393969996832,129.63393969996832,None,3.747395833333333,1.4041247999994084,129.63393969996832,None,,,,,g,001,2020_Oct_27_1212,piloto1,2020.2.3,59.91371227018931,
1000,0.0,imagenes/Pandebono.png,0.8988574378129985,None,0,2,2,3,0,7,7,26,,,130.083800240024,None,131.0671985000372,None,2.764322916666667,1.2140740000177175,131.0671985000372,None,,,,,g,001,2020_Oct_27_1212,piloto1,2020.2.3,59.91371227018931,
1000,0.0,imagenes/Coliflor.jpg,0.3640740491088985,None,0,2,2,3,0,8,8,24,,,131.31736512002536,132.31713640003,132.31713640003,None,3.669270833333333,1.3259212999837473,132.31713640003,None,,,,,g,001,2020_Oct_27_1212,piloto1,2020.2.3,59.91371227018931,
1000,0.0,imagenes/Rollo de queso.png,0.9201641182756888,None,0,2,2,3,0,9,9,33,,,132.68370623998345,None,133.6671530000167,None,4.41796875,1.331277700024657,133.6671530000167,None,,,,,g,001,2020_Oct_27_1212,piloto1,2020.2.3,59.91371227018931,
1000,0.0,imagenes/Galletas-festival.jpg,0.11306074364032936,None,0,2,2,3,0,10,10,7,,,134.05011674000417,None,135.03396620007697,None,3.34375,1.2312221999745816,135.03396620007697,None,,,,,g,001,2020_Oct_27_1212,piloto1,2020.2.3,59.91371227018931,
1000,0.0,imagenes/Pescadito.png,0.7172825011486081,None,0,2,2,3,0,11,11,29,,,135.3003716199659,136.30060030007735,136.30060030007735,None,4.404947916666667,1.2902840999886394,136.30060030007735,None,,,,,g,001,2020_Oct_27_1212,piloto1,2020.2.3,59.91371227018931,
1000,0.0,imagenes/Mango.jpeg,0.4341155418941499,None,0,2,2,3,0,12,12,10,,,136.63328714000528,None,137.61694490001537,None,2.770833333333333,1.1841864999150857,137.61694490001537,None,,,,,g,001,2020_Oct_27_1212,piloto1,2020.2.3,59.91371227018931,
1000,0.0,imagenes/Banano.jpeg,0.2267656716538785,None,0,2,2,3,0,13,13,1,,,137.833707720018,None,138.83360710006673,None,3.6171875,1.21996749995742,138.83360710006673,None,,,,,g,001,2020_Oct_27_1212,piloto1,2020.2.3,59.91371227018931,
1000,0.0,imagenes/Papas-pollo.jpg,0.08373485417902837,None,0,2,2,3,0,14,14,15,,,139.08333781999536,140.08330850000493,140.08330850000493,None,4.606770833333333,1.2060667000478134,140.08330850000493,None,,,,,g,001,2020_Oct_27_1212,piloto1,2020.2.3,59.91371227018931,
1000,0.0,imagenes/Nutella (1).jpg,0.8826531883338111,None,0,2,2,3,0,15,15,12,,,140.316751820012,None,141.31684330001008,None,3.4283854166666665,1.275004499941133,141.31684330001008,None,,,,,g,001,2020_Oct_27_1212,piloto1,2020.2.3,59.91371227018931,
1000,0.0,imagenes/pistachos.jpg,0.7450869742741464,None,0,2,2,3,0,16,16,30,,,141.6165817200439,142.6165937000187,142.59996829996817,None,4.274739583333333,1.2467226000735536,142.59996829996817,None,,,,,g,001,2020_Oct_27_1212,piloto1,2020.2.3,59.91371227018931,
1000,0.0,imagenes/Pepinillos.png,0.0038966441241518046,None,0,2,2,3,0,17,17,28,,,142.89970293997322,143.9004450000357,143.9004450000357,None,3.545572916666667,1.3620538000250235,143.9004450000357,None,,,,,g,001,2020_Oct_27_1212,piloto1,2020.2.3,59.91371227018931,
1000,0.0,imagenes/Papas-limon.jpg,0.5280798509093595,None,0,2,2,3,0,18,18,14,,,144.28358391996008,145.28346170007717,145.28346170007717,None,3.805989583333333,1.2605799000011757,145.28346170007717,None,,,,,g,001,2020_Oct_27_1212,piloto1,2020.2.3,59.91371227018931,
1000,0.0,imagenes/Rollos de canela.png,0.2610974409574519,None,0,2,2,3,0,19,19,34,,,145.5833073399961,None,146.5664153000107,None,4.365885416666667,1.1497877000365406,146.5664153000107,None,,,,,g,001,2020_Oct_27_1212,piloto1,2020.2.3,59.91371227018931,
1000,0.0,imagenes/salchicha hojaldrada.jpg,0.7119773165481526,None,0,2,2,3,0,20,20,35,,,146.75078552004416,None,147.7333582000574,None,3.604166666666667,1.279035700019449,147.7333582000574,None,,,,,g,001,2020_Oct_27_1212,piloto1,2020.2.3,59.91371227018931,
1000,0.0,imagenes/Papas-naturales.jpg,0.37590629905521566,None,0,2,2,3,0,21,21,13,,,148.04976972003934,149.04979640000965,149.04979640000965,None,4.26171875,1.3556850999593735,149.04979640000965,None,,,,,g,001,2020_Oct_27_1212,piloto1,2020.2.3,59.91371227018931,
1000,0.0,imagenes/Manzana.jpg,0.4048420327008191,None,0,2,2,3,0,22,22,11,,,149.44949863997755,None,150.45008970005438,None,3.55859375,1.3104873000411317,150.45008970005438,None,,,,,g,001,2020_Oct_27_1212,piloto1,2020.2.3,59.91371227018931,
1000,0.0,imagenes/Brocoli.jpg,0.24293074945529525,None,0,2,2,3,0,23,23,21,,,150.78281762006227,151.78316990006715,151.78316990006715,None,3.55859375,1.3084020999958739,151.78316990006715,None,,,,,g,001,2020_Oct_27_1212,piloto1,2020.2.3,59.91371227018931,
1000,0.0,imagenes/Leche-de-almendras.jpg,0.3886559457994673,None,0,2,2,3,0,24,24,9,,,152.19930342000444,None,153.18468950001989,None,4.619791666666667,1.129851800040342,153.18468950001989,None,,,,,g,001,2020_Oct_27_1212,piloto1,2020.2.3,59.91371227018931,
1000,0.0,imagenes/Almojabanas.png,0.6725051200713246,None,0,2,2,3,0,25,25,20,,,153.3830212599598,None,154.36618450004607,None,5.498697916666666,1.4987117999698967,154.36618450004607,None,,,,,g,001,2020_Oct_27_1212,piloto1,2020.2.3,59.91371227018931,
1000,0.0,imagenes/Croissant.jpg,0.5824748589948932,None,0,2,2,3,0,26,26,5,,,154.91620334000328,None,155.91614119999576,None,3.506510416666667,1.5729073999682441,155.91614119999576,None,,,,,g,001,2020_Oct_27_1212,piloto1,2020.2.3,59.91371227018931,
1000,0.0,imagenes/Chontaduro.png,0.8693553300418813,None,0,2,2,3,0,27,27,23,,,156.53282433999703,None,157.4995196000673,None,2.412760416666667,1.302662100060843,157.4995196000673,None,,,,,g,001,2020_Oct_27_1212,piloto1,2020.2.3,59.91371227018931,
1000,0.0,imagenes/Muffin de banano.png,0.9610615059009696,None,0,2,2,3,0,28,28,25,,,157.86607834005264,158.86616079998203,158.86616079998203,None,3.923177083333333,1.2060115999775007,158.86616079998203,None,,,,,g,001,2020_Oct_27_1212,piloto1,2020.2.3,59.91371227018931,
1000,0.0,imagenes/bon-bon-bun.jpg,0.7417452724056987,None,0,2,2,3,0,29,29,2,,,159.11611834000797,160.1161187000107,160.1161187000107,None,3.2591145833333335,1.4581023999489844,160.1161187000107,None,,,,,g,001,2020_Oct_27_1212,piloto1,2020.2.3,59.91371227018931,
1000,0.0,imagenes/Chocoramo.jfif.jpg,0.7425528559884101,None,0,2,2,3,0,30,30,4,,,160.61592873996125,161.6156002000207,161.59928510000464,None,4.704427083333333,1.1611567999934778,161.59928510000464,None,,,,,g,001,2020_Oct_27_1212,piloto1,2020.2.3,59.91371227018931,
1000,0.0,imagenes/Kiwi.jpg,0.3929145850942286,None,0,2,2,3,0,31,31,8,,,161.79925252005924,None,162.79944660002366,None,3.1419270833333335,1.2755301999859512,162.79944660002366,None,,,,,g,001,2020_Oct_27_1212,piloto1,2020.2.3,59.91371227018931,
1000,0.0,imagenes/Canelazo.png,0.6730479360767814,None,0,2,2,3,0,32,32,22,,,163.1324815600412,None,164.1158242999809,None,3.94921875,1.3145788999972865,164.1158242999809,None,,,,,g,001,2020_Oct_27_1212,piloto1,2020.2.3,59.91371227018931,
1000,0.0,imagenes/Rosquitas (1).jpg,0.024090340010977873,None,0,2,2,3,0,33,33,17,,,164.4821919400245,165.48253729997668,165.48253729997668,None,3.1549479166666665,1.3926975999493152,165.48253729997668,None,,,,,g,001,2020_Oct_27_1212,piloto1,2020.2.3,59.91371227018931,
1000,0.0,imagenes/Uvas.jpg,0.4959291644143431,None,0,2,2,3,0,34,34,19,,,165.8990296199685,166.89932610001415,166.89932610001415,None,3.6171875,1.104390099993907,166.89932610001415,None,,,,,g,001,2020_Oct_27_1212,piloto1,2020.2.3,59.91371227018931,
1000,0.0,imagenes/Pizza.png,0.21192443516553439,None,0,2,2,3,0,35,35,31,,,167.0485676399665,168.04860750003718,168.0323514000047,None,3.3893229166666665,1.151589100016281,168.0323514000047,None,,,,,g,001,2020_Oct_27_1212,piloto1,2020.2.3,59.91371227018931,
1000,0.0,,,,0,2,2,3,,,,,,,,,,,,,,,,,,,g,001,2020_Oct_27_1212,piloto1,2020.2.3,59.91371227018931,
400,0.02,imagenes/Muffin de banano.png,0.9610615059009696,None,0,3,3,0,0,0,0,25,,,168.24887626005804,None,169.2322914999677,None,3.786458333333333,1.2342813999857754,169.2322914999677,None,,,,,g,001,2020_Oct_27_1212,piloto1,2020.2.3,59.91371227018931,
400,0.02,imagenes/Leche-de-almendras.jpg,0.3886559457994673,None,0,3,3,0,0,1,1,9,,,169.5654452999588,170.56618109997362,170.56618109997362,None,3.3372395833333335,1.088192299939692,170.56618109997362,None,,,,,g,001,2020_Oct_27_1212,piloto1,2020.2.3,59.91371227018931,
400,0.02,imagenes/Yogurt-alpina.jpg,0.5445152936222175,None,0,3,3,0,0,2,2,18,,,170.69878273999785,None,171.68221180001274,None,2.770833333333333,1.2678970999550074,171.68221180001274,None,,,,,g,001,2020_Oct_27_1212,piloto1,2020.2.3,59.91371227018931,
400,0.02,imagenes/Almojabanas.png,0.6725051200713246,None,0,3,3,0,0,3,3,20,,,172.01499505997637,None,172.9988761000568,None,2.302083333333333,1.3140852999640629,172.9988761000568,None,,,,,g,001,2020_Oct_27_1212,piloto1,2020.2.3,59.91371227018931,
400,0.02,imagenes/Papas picantes.jpg,0.524978898672612,None,0,3,3,0,0,4,4,27,,,173.3487420200603,None,174.33197419997305,None,3.2526041666666665,1.2800674999598414,174.33197419997305,None,,,,,g,001,2020_Oct_27_1212,piloto1,2020.2.3,59.91371227018931,
400,0.02,imagenes/Popetas.jpg,0.9621625733302204,None,0,3,3,0,0,5,5,16,,,174.68188156005928,None,175.66510350001045,None,3.4544270833333335,1.478647500043735,175.66510350001045,None,,,,,g,001,2020_Oct_27_1212,piloto1,2020.2.3,59.91371227018931,
400,0.02,imagenes/Chocoramo.jfif.jpg,0.7425528559884101,None,0,3,3,0,0,6,6,4,,,176.1825804400258,None,177.16517310007475,None,4.125,1.4989391000708565,177.16517310007475,None,,,,,g,001,2020_Oct_27_1212,piloto1,2020.2.3,59.91371227018931,
400,0.02,imagenes/Rollo de queso.png,0.9201641182756888,None,0,3,3,0,0,7,7,33,,,177.71511854005513,None,178.71500149997883,None,4.53515625,1.6615838999859989,178.71500149997883,None,,,,,g,001,2020_Oct_27_1212,piloto1,2020.2.3,59.91371227018931,
400,0.02,imagenes/Rollos de canela.png,0.2610974409574519,None,0,3,3,0,0,8,8,34,,,179.39342452001293,180.39852819999214,180.39852819999214,None,5.322916666666666,1.3776701999595389,180.39852819999214,None,,,,,g,001,2020_Oct_27_1212,piloto1,2020.2.3,59.91371227018931,
400,0.02,imagenes/Alpinito.jpg,0.7416150880621702,None,0,3,3,0,0,9,9,0,,,180.8149675400462,181.8150467000669,181.8150467000669,None,3.3697916666666665,2.053168799960986,181.8150467000669,None,,,,,g,001,2020_Oct_27_1212,piloto1,2020.2.3,59.91371227018931,
400,0.02,imagenes/Canelazo.png,0.6730479360767814,None,0,3,3,0,0,10,10,22,,,182.93150545998944,183.93169200001284,183.93169200001284,None,2.26953125,2.469728199997917,183.93169200001284,None,,,,,g,001,2020_Oct_27_1212,piloto1,2020.2.3,59.91371227018931,
400,0.02,imagenes/Brocoli.jpg,0.24293074945529525,None,0,3,3,0,0,11,11,21,,,185.4313585200347,186.43139519996475,186.41624400008004,None,4.001302083333333,1.4462559999665245,186.41624400008004,None,,,,,g,001,2020_Oct_27_1212,piloto1,2020.2.3,59.91371227018931,
400,0.02,imagenes/Chontaduro.png,0.8693553300418813,None,0,3,3,0,0,12,12,23,,,186.89802181997803,187.8986072000116,187.8986072000116,None,4.639322916666667,1.691979800001718,187.8986072000116,None,,,,,g,001,2020_Oct_27_1212,piloto1,2020.2.3,59.91371227018931,
400,0.02,imagenes/Croissant.jpg,0.5824748589948932,None,0,3,3,0,0,13,13,5,,,188.63118404005655,189.6315199000528,189.6315199000528,None,2.647135416666667,1.6919400999322534,189.6315199000528,None,,,,,g,001,2020_Oct_27_1212,piloto1,2020.2.3,59.91371227018931,
400,0.02,imagenes/Pizzetas.png,0.3295951589873042,None,0,3,3,0,0,14,14,32,,,190.36438463996166,None,191.3482216000557,None,4.4375,2.414479900035076,191.3482216000557,None,,,,,g,001,2020_Oct_27_1212,piloto1,2020.2.3,59.91371227018931,
400,0.02,imagenes/Manzana.jpg,0.4048420327008191,None,0,3,3,0,0,15,15,11,,,192.8141921399627,193.81449020002037,193.81449020002037,None,2.6796875,2.2269357999321073,193.81449020002037,None,,,,,g,001,2020_Oct_27_1212,piloto1,2020.2.3,59.91371227018931,
400,0.02,imagenes/Pandebono.png,0.8988574378129985,None,0,3,3,0,0,16,16,26,,,195.0810016400181,None,196.06463460007217,None,4.600260416666667,2.6652067999821156,196.06463460007217,None,,,,,g,001,2020_Oct_27_1212,piloto1,2020.2.3,59.91371227018931,
400,0.02,imagenes/Uvas.jpg,0.4959291644143431,None,0,3,3,0,0,17,17,19,,,197.78084454005585,None,198.74737019999884,None,3.864583333333333,1.3524427000666037,198.74737019999884,None,,,,,g,001,2020_Oct_27_1212,piloto1,2020.2.3,59.91371227018931,
400,0.02,imagenes/bon-bon-bun.jpg,0.7417452724056987,None,0,3,3,0,0,18,18,2,,,199.180452060001,None,200.14752850006334,None,3.421875,1.8692909000674263,200.14752850006334,None,,,,,g,001,2020_Oct_27_1212,piloto1,2020.2.3,59.91371227018931,
400,0.02,imagenes/Galletas-festival.jpg,0.11306074364032936,None,0,3,3,0,0,19,19,7,,,201.08043544001413,202.08063019998372,202.08063019998372,None,4.138020833333333,2.725242199958302,202.08063019998372,None,,,,,g,001,2020_Oct_27_1212,piloto1,2020.2.3,59.91371227018931,
400,0.02,imagenes/pistachos.jpg,0.7450869742741464,None,0,3,3,0,0,20,20,30,,,203.83030192004517,204.83017580001615,204.81355960003566,None,3.662760416666667,1.247057400061749,204.81355960003566,None,,,,,g,001,2020_Oct_27_1212,piloto1,2020.2.3,59.91371227018931,
400,0.02,imagenes/Banano.jpeg,0.2267656716538785,None,0,3,3,0,0,21,21,1,,,205.11358574004845,None,206.0969168000156,None,4.424479166666667,1.4352005999535322,206.0969168000156,None,,,,,g,001,2020_Oct_27_1212,piloto1,2020.2.3,59.91371227018931,
400,0.02,imagenes/Kiwi.jpg,0.3929145850942286,None,0,3,3,0,0,22,22,8,,,206.56340532002505,None,207.56353659997694,None,5.036458333333334,1.3266769999172539,207.56353659997694,None,,,,,g,001,2020_Oct_27_1212,piloto1,2020.2.3,59.91371227018931,
400,0.02,imagenes/Pescadito.png,0.7172825011486081,None,0,3,3,0,0,23,23,29,,,207.93001034001355,208.9301567999646,208.9135050000623,None,3.63671875,1.9820249000331387,208.9135050000623,None,,,,,g,001,2020_Oct_27_1212,piloto1,2020.2.3,59.91371227018931,
400,0.02,imagenes/Nutella (1).jpg,0.8826531883338111,None,0,3,3,0,0,24,24,12,,,209.93005411999766,210.9303941000253,210.9303941000253,None,4.33984375,1.2889479000587016,210.9303941000253,None,,,,,g,001,2020_Oct_27_1212,piloto1,2020.2.3,59.91371227018931,
400,0.02,imagenes/Papas-pollo.jpg,0.08373485417902837,None,0,3,3,0,0,25,25,15,,,211.24646401996725,212.24677259998862,212.23029870004393,None,3.623697916666667,1.3612605000380427,212.23029870004393,None,,,,,g,001,2020_Oct_27_1212,piloto1,2020.2.3,59.91371227018931,
400,0.02,imagenes/salchicha hojaldrada.jpg,0.7119773165481526,None,0,3,3,0,0,26,26,35,,,212.62977872006596,None,213.61339469999075,None,4.385416666666667,1.3992678000358865,213.61339469999075,None,,,,,g,001,2020_Oct_27_1212,piloto1,2020.2.3,59.91371227018931,
400,0.02,imagenes/Papas-limon.jpg,0.5280798509093595,None,0,3,3,0,0,27,27,14,,,214.046492519998,215.04682420007885,215.04682420007885,None,3.7734375,1.4544170000590384,215.04682420007885,None,,,,,g,001,2020_Oct_27_1212,piloto1,2020.2.3,59.91371227018931,
400,0.02,imagenes/Rosquitas (1).jpg,0.024090340010977873,None,0,3,3,0,0,28,28,17,,,215.54667343997863,216.54664650000632,216.54664650000632,None,3.2526041666666665,1.4764870000071824,216.54664650000632,None,,,,,g,001,2020_Oct_27_1212,piloto1,2020.2.3,59.91371227018931,
400,0.02,imagenes/Brownie.jpg,0.2838924074864093,None,0,3,3,0,0,29,29,3,,,217.0799653600436,218.07996630005073,218.07996630005073,None,4.815104166666666,1.3600939000025392,218.07996630005073,None,,,,,g,001,2020_Oct_27_1212,piloto1,2020.2.3,59.91371227018931,
400,0.02,imagenes/Mango.jpeg,0.4341155418941499,None,0,3,3,0,0,30,30,10,,,218.4795211400604,219.47996510006487,219.47996510006487,None,2.9986979166666665,1.5596461000386626,219.47996510006487,None,,,,,g,001,2020_Oct_27_1212,piloto1,2020.2.3,59.91371227018931,
400,0.02,imagenes/Galletas Tosh.jpg,0.9129693753280027,None,0,3,3,0,0,31,31,6,,,220.07937363996172,221.07971700001508,221.07971700001508,None,3.584635416666667,1.270441300002858,221.07971700001508,None,,,,,g,001,2020_Oct_27_1212,piloto1,2020.2.3,59.91371227018931,
400,0.02,imagenes/Papas-naturales.jpg,0.37590629905521566,None,0,3,3,0,0,32,32,13,,,221.37974942007568,222.37960470002145,222.37960470002145,None,4.138020833333333,1.2066807999508455,222.37960470002145,None,,,,,g,001,2020_Oct_27_1212,piloto1,2020.2.3,59.91371227018931,
400,0.02,imagenes/Pepinillos.png,0.0038966441241518046,None,0,3,3,0,0,33,33,28,,,222.6292892400641,None,223.6132965000579,None,3.4348958333333335,1.1447356001008302,223.6132965000579,None,,,,,g,001,2020_Oct_27_1212,piloto1,2020.2.3,59.91371227018931,
400,0.02,imagenes/Coliflor.jpg,0.3640740491088985,None,0,3,3,0,0,34,34,24,,,223.79620071998798,224.79628110001795,224.79628110001795,None,4.274739583333333,1.2033902999246493,224.79628110001795,None,,,,,g,001,2020_Oct_27_1212,piloto1,2020.2.3,59.91371227018931,
400,0.02,imagenes/Pizza.png,0.21192443516553439,None,0,3,3,0,0,35,35,31,,,225.02960092001595,226.02968460007105,226.02968460007105,None,4.49609375,1.1371492000762373,226.02968460007105,None,,,,,g,001,2020_Oct_27_1212,piloto1,2020.2.3,59.91371227018931,
400,0.02,,,,0,3,3,0,,,,,,,,,,,,,,,,,,,g,001,2020_Oct_27_1212,piloto1,2020.2.3,59.91371227018931,
,,,,,,,,,,,,,,,,,,,,,,,226.22233290004078,None,229.24231730005704,None,,,,,,,
