Hertz,volumen,Imagenes,Random,Correcto,trials.thisRepN,trials.thisTrialN,trials.thisN,trials.thisIndex,trials_2.thisRepN,trials_2.thisTrialN,trials_2.thisN,trials_2.thisIndex,sound_3.started,sound_3.stopped,Sonido.started,Sonido.stopped,image_2.started,image_2.stopped,slider_2.response,slider_2.rt,slider_2.started,slider_2.stopped,text_2.started,text_2.stopped,text_3.started,text_3.stopped,text.started,text.stopped,text_4.started,text_4.stopped,image.started,image.stopped,texto_final.started,texto_final.stopped,participant,session,date,expName,psychopyVersion,frameRate,
1500,0.02,imagenes/Coliflor.jpg,0.3640740491088985,None,0,0,0,1,0,0,0,24,10.793967219797196,None,21.011820319923572,22.08007909997832,22.08007909997832,None,None,None,22.08007909997832,None,,,,,,,,,,,,,h,001,2020_Nov_09_1642,piloto1,2020.2.5,60.286142141216814,
1500,0.02,imagenes/Rosquitas (1).jpg,0.024090340010977873,None,0,0,0,1,0,1,1,17,,,23.878535779978847,None,24.862416699994355,None,3.578125,2.1842891999986023,24.862416699994355,None,,,,,,,,,,,,,h,001,2020_Nov_09_1642,piloto1,2020.2.5,60.286142141216814,
1500,0.02,imagenes/Pizza.png,0.21192443516553439,None,0,0,0,1,0,2,2,31,,,26.07843366000452,27.07894470001338,27.07894470001338,None,4.157552083333333,1.5396181999822147,27.07894470001338,None,,,,,,,,,,,,,h,001,2020_Nov_09_1642,piloto1,2020.2.5,60.286142141216814,
1500,0.02,imagenes/Pescadito.png,0.7172825011486081,None,0,0,0,1,0,3,3,29,,,27.66252281999914,28.662240599980578,28.645469399983995,None,3.12890625,1.646410499990452,28.645469399983995,None,,,,,,,,,,,,,h,001,2020_Nov_09_1642,piloto1,2020.2.5,60.286142141216814,
1500,0.02,imagenes/Brocoli.jpg,0.24293074945529525,None,0,0,0,1,0,4,4,21,,,29.328590159973828,30.328578200016636,30.328578200016636,None,3.4544270833333335,2.1773258000030182,30.328578200016636,None,,,,,,,,,,,,,h,001,2020_Nov_09_1642,piloto1,2020.2.5,60.286142141216814,
1500,0.02,imagenes/Muffin de banano.png,0.9610615059009696,None,0,0,0,1,0,5,5,25,,,31.561960379971424,32.561770599975716,32.545362400007434,None,3.662760416666667,1.64622120000422,32.545362400007434,None,,,,,,,,,,,,,h,001,2020_Nov_09_1642,piloto1,2020.2.5,60.286142141216814,
1500,0.02,imagenes/Galletas-festival.jpg,0.11306074364032936,None,0,0,0,1,0,6,6,7,,,33.27851533994544,None,34.261717099987436,None,3.630208333333333,1.6950950999744236,34.261717099987436,None,,,,,,,,,,,,,h,001,2020_Nov_09_1642,piloto1,2020.2.5,60.286142141216814,
1500,0.02,imagenes/Manzana.jpg,0.4048420327008191,None,0,0,0,1,0,7,7,11,,,35.02786667997134,36.02797749999445,36.02797749999445,None,3.630208333333333,1.7930826999945566,36.02797749999445,None,,,,,,,,,,,,,h,001,2020_Nov_09_1642,piloto1,2020.2.5,60.286142141216814,
1500,0.02,imagenes/Chocoramo.jfif.jpg,0.7425528559884101,None,0,0,0,1,0,8,8,4,,,36.8778075799637,None,37.87792170001194,None,3.630208333333333,1.6734850000357255,37.87792170001194,None,,,,,,,,,,,,,h,001,2020_Nov_09_1642,piloto1,2020.2.5,60.286142141216814,
1500,0.02,imagenes/Uvas.jpg,0.4959291644143431,None,0,0,0,1,0,9,9,19,,,38.578206059959484,39.578099599981215,39.578099599981215,None,3.630208333333333,1.8196468999958597,39.578099599981215,None,,,,,,,,,,,,,h,001,2020_Nov_09_1642,piloto1,2020.2.5,60.286142141216814,
1500,0.02,imagenes/Pandebono.png,0.8988574378129985,None,0,0,0,1,0,10,10,26,,,40.444448119960725,None,41.429010599968024,None,3.630208333333333,1.6800797999603674,41.429010599968024,None,,,,,,,,,,,,,h,001,2020_Nov_09_1642,piloto1,2020.2.5,60.286142141216814,
1500,0.02,imagenes/Mango.jpeg,0.4341155418941499,None,0,0,0,1,0,11,11,10,,,42.161271719960496,43.16128259996185,43.14441379997879,None,3.630208333333333,1.7353566999663599,43.14441379997879,None,,,,,,,,,,,,,h,001,2020_Nov_09_1642,piloto1,2020.2.5,60.286142141216814,
1500,0.02,imagenes/Popetas.jpg,0.9621625733302204,None,0,0,0,1,0,12,12,16,,,43.927824519982096,44.927800700010266,44.927800700010266,None,3.630208333333333,1.6745631999801844,44.927800700010266,None,,,,,,,,,,,,,h,001,2020_Nov_09_1642,piloto1,2020.2.5,60.286142141216814,
1500,0.02,imagenes/Canelazo.png,0.6730479360767814,None,0,0,0,1,0,13,13,22,,,45.660582279990194,None,46.644599199993536,None,3.630208333333333,1.6954480999847874,46.644599199993536,None,,,,,,,,,,,,,h,001,2020_Nov_09_1642,piloto1,2020.2.5,60.286142141216814,
1500,0.02,imagenes/Croissant.jpg,0.5824748589948932,None,0,0,0,1,0,14,14,5,,,47.41070027995738,None,48.39449669996975,None,3.630208333333333,1.9653302000369877,48.39449669996975,None,,,,,,,,,,,,,h,001,2020_Nov_09_1642,piloto1,2020.2.5,60.286142141216814,
1500,0.02,imagenes/Kiwi.jpg,0.3929145850942286,None,0,0,0,1,0,15,15,8,,,49.394592059979914,50.39456240000436,50.39456240000436,None,3.565104166666667,1.5210813999874517,50.39456240000436,None,,,,,,,,,,,,,h,001,2020_Nov_09_1642,piloto1,2020.2.5,60.286142141216814,
1500,0.02,imagenes/pistachos.jpg,0.7450869742741464,None,0,0,0,1,0,16,16,30,,,50.9445407599851,51.944325599994045,51.944325599994045,None,3.565104166666667,1.6769717000424862,51.944325599994045,None,,,,,,,,,,,,,h,001,2020_Nov_09_1642,piloto1,2020.2.5,60.286142141216814,
1500,0.02,imagenes/Leche-de-almendras.jpg,0.3886559457994673,None,0,0,0,1,0,17,17,9,,,52.71082709994516,53.710619499965105,53.710619499965105,None,3.552083333333333,1.6561248999787495,53.710619499965105,None,,,,,,,,,,,,,h,001,2020_Nov_09_1642,piloto1,2020.2.5,60.286142141216814,
1500,0.02,imagenes/Alpinito.jpg,0.7416150880621702,None,0,0,0,1,0,18,18,0,,,54.410662819980644,None,55.410651899990626,None,3.526041666666667,1.7410173999960534,55.410651899990626,None,,,,,,,,,,,,,h,001,2020_Nov_09_1642,piloto1,2020.2.5,60.286142141216814,
1500,0.02,imagenes/Papas-limon.jpg,0.5280798509093595,None,0,0,0,1,0,19,19,14,,,56.177077959961025,None,57.17772979999427,None,3.526041666666667,1.6867494000471197,57.17772979999427,None,,,,,,,,,,,,,h,001,2020_Nov_09_1642,piloto1,2020.2.5,60.286142141216814,
1500,0.02,imagenes/Rollo de queso.png,0.9201641182756888,None,0,0,0,1,0,20,20,33,,,57.9101483199629,None,58.89354279998224,None,3.526041666666667,1.6654969999799505,58.89354279998224,None,,,,,,,,,,,,,h,001,2020_Nov_09_1642,piloto1,2020.2.5,60.286142141216814,
1500,0.02,imagenes/bon-bon-bun.jpg,0.7417452724056987,None,0,0,0,1,0,21,21,2,,,59.61026742000831,60.61050000000978,60.61050000000978,None,3.526041666666667,1.5564025999628939,60.61050000000978,None,,,,,,,,,,,,,h,001,2020_Nov_09_1642,piloto1,2020.2.5,60.286142141216814,
1500,0.02,imagenes/Papas-pollo.jpg,0.08373485417902837,None,0,0,0,1,0,22,22,15,,,61.210647519968916,None,62.19376779999584,None,3.526041666666667,1.584119000006467,62.19376779999584,None,,,,,,,,,,,,,h,001,2020_Nov_09_1642,piloto1,2020.2.5,60.286142141216814,
1500,0.02,imagenes/Banano.jpeg,0.2267656716538785,None,0,0,0,1,0,23,23,1,,,62.82703241996933,63.827477400016505,63.81079309998313,None,3.526041666666667,1.627377400000114,63.81079309998313,None,,,,,,,,,,,,,h,001,2020_Nov_09_1642,piloto1,2020.2.5,60.286142141216814,
1500,0.02,imagenes/Brownie.jpg,0.2838924074864093,None,0,0,0,1,0,24,24,3,,,64.50986427997123,None,65.49340159998974,None,3.526041666666667,1.4669730000314303,65.49340159998974,None,,,,,,,,,,,,,h,001,2020_Nov_09_1642,piloto1,2020.2.5,60.286142141216814,
1500,0.02,imagenes/Pizzetas.png,0.3295951589873042,None,0,0,0,1,0,25,25,32,,,66.00983171997359,67.01001069997437,66.99364649999188,None,3.526041666666667,1.630698500026483,66.99364649999188,None,,,,,,,,,,,,,h,001,2020_Nov_09_1642,piloto1,2020.2.5,60.286142141216814,
1500,0.02,imagenes/Rollos de canela.png,0.2610974409574519,None,0,0,0,1,0,26,26,34,,,67.69351177997305,None,68.67679479997605,None,3.526041666666667,1.785342600021977,68.67679479997605,None,,,,,,,,,,,,,h,001,2020_Nov_09_1642,piloto1,2020.2.5,60.286142141216814,
1500,0.02,imagenes/Yogurt-alpina.jpg,0.5445152936222175,None,0,0,0,1,0,27,27,18,,,69.5103067199816,70.5098633999587,70.49339769996004,None,3.526041666666667,1.746345499996096,70.49339769996004,None,,,,,,,,,,,,,h,001,2020_Nov_09_1642,piloto1,2020.2.5,60.286142141216814,
1500,0.02,imagenes/Papas-naturales.jpg,0.37590629905521566,None,0,0,0,1,0,28,28,13,,,71.29301371995825,None,72.25967850000598,None,3.526041666666667,1.8357723000226542,72.25967850000598,None,,,,,,,,,,,,,h,001,2020_Nov_09_1642,piloto1,2020.2.5,60.286142141216814,
1500,0.02,imagenes/Almojabanas.png,0.6725051200713246,None,0,0,0,1,0,29,29,20,,,73.15999761997955,None,74.1596123999916,None,3.526041666666667,1.6092814999865368,74.1596123999916,None,,,,,,,,,,,,,h,001,2020_Nov_09_1642,piloto1,2020.2.5,60.286142141216814,
1500,0.02,imagenes/Chontaduro.png,0.8693553300418813,None,0,0,0,1,0,30,30,23,,,74.79331865996937,75.79330660001142,75.79330660001142,None,3.526041666666667,1.7189020999940112,75.79330660001142,None,,,,,,,,,,,,,h,001,2020_Nov_09_1642,piloto1,2020.2.5,60.286142141216814,
1500,0.02,imagenes/salchicha hojaldrada.jpg,0.7119773165481526,None,0,0,0,1,0,31,31,35,,,76.54331085996819,77.54306619998533,77.54306619998533,None,3.526041666666667,2.25610769999912,77.54306619998533,None,,,,,,,,,,,,,h,001,2020_Nov_09_1642,piloto1,2020.2.5,60.286142141216814,
1500,0.02,imagenes/Nutella (1).jpg,0.8826531883338111,None,0,0,0,1,0,32,32,12,,,78.84276561997831,None,79.82663829997182,None,3.526041666666667,1.749546899984125,79.82663829997182,None,,,,,,,,,,,,,h,001,2020_Nov_09_1642,piloto1,2020.2.5,60.286142141216814,
1500,0.02,imagenes/Papas picantes.jpg,0.524978898672612,None,0,0,0,1,0,33,33,27,,,80.60945486000855,81.60957480000798,81.59293099999195,None,3.526041666666667,1.6614619999891147,81.59293099999195,None,,,,,,,,,,,,,h,001,2020_Nov_09_1642,piloto1,2020.2.5,60.286142141216814,
1500,0.02,imagenes/Galletas Tosh.jpg,0.9129693753280027,None,0,0,0,1,0,34,34,6,,,82.32631227999809,83.3263843000168,83.30930969998008,None,3.526041666666667,2.216183100012131,83.30930969998008,None,,,,,,,,,,,,,h,001,2020_Nov_09_1642,piloto1,2020.2.5,60.286142141216814,
1500,0.02,imagenes/Pepinillos.png,0.0038966441241518046,None,0,0,0,1,0,35,35,28,,,84.5924655800045,None,85.57601019996218,None,3.526041666666667,1.3505321000120603,85.57601019996218,None,,,,,,,,,,,,,h,001,2020_Nov_09_1642,piloto1,2020.2.5,60.286142141216814,
1500,0.02,,,,0,0,0,1,,,,,,,,,,,,,,,,,,,,,,,,,,,h,001,2020_Nov_09_1642,piloto1,2020.2.5,60.286142141216814,
1000,0.0,imagenes/Pandebono.png,0.8988574378129985,None,0,1,1,3,0,0,0,26,,,85.99246198000037,None,86.97592920000898,None,3.526041666666667,1.8032752000144683,86.97592920000898,None,,,,,,,,,,,,,h,001,2020_Nov_09_1642,piloto1,2020.2.5,60.286142141216814,
1000,0.0,imagenes/Galletas-festival.jpg,0.11306074364032936,None,0,1,1,3,0,1,1,7,,,87.82574552000733,88.82587559998501,88.82587559998501,None,3.526041666666667,1.6749678999767639,88.82587559998501,None,,,,,,,,,,,,,h,001,2020_Nov_09_1642,piloto1,2020.2.5,60.286142141216814,
1000,0.0,imagenes/Brownie.jpg,0.2838924074864093,None,0,1,1,3,0,2,2,3,,,89.55889237995143,None,90.55913529999088,None,3.526041666666667,1.7900364000233822,90.55913529999088,None,,,,,,,,,,,,,h,001,2020_Nov_09_1642,piloto1,2020.2.5,60.286142141216814,
1000,0.0,imagenes/Almojabanas.png,0.6725051200713246,None,0,1,1,3,0,3,3,20,,,91.40879637995386,None,92.37632450001547,None,3.526041666666667,1.9867290999973193,92.37632450001547,None,,,,,,,,,,,,,h,001,2020_Nov_09_1642,piloto1,2020.2.5,60.286142141216814,
1000,0.0,imagenes/Pizza.png,0.21192443516553439,None,0,1,1,3,0,4,4,31,,,93.42544101999374,None,94.4087792999926,None,3.526041666666667,2.0189471999765374,94.4087792999926,None,,,,,,,,,,,,,h,001,2020_Nov_09_1642,piloto1,2020.2.5,60.286142141216814,
1000,0.0,imagenes/bon-bon-bun.jpg,0.7417452724056987,None,0,1,1,3,0,5,5,2,,,95.47550381999463,None,96.47567929996876,None,3.526041666666667,2.0100019999663346,96.47567929996876,None,,,,,,,,,,,,,h,001,2020_Nov_09_1642,piloto1,2020.2.5,60.286142141216814,
1000,0.0,imagenes/Rollos de canela.png,0.2610974409574519,None,0,1,1,3,0,6,6,34,,,97.52520102000562,None,98.51132559997495,None,3.526041666666667,1.8666473000193946,98.51132559997495,None,,,,,,,,,,,,,h,001,2020_Nov_09_1642,piloto1,2020.2.5,60.286142141216814,
1000,0.0,imagenes/Rollo de queso.png,0.9201641182756888,None,0,1,1,3,0,7,7,33,,,99.44211537999217,None,100.42486430000281,None,3.526041666666667,1.8355058000306599,100.42486430000281,None,,,,,,,,,,,,,h,001,2020_Nov_09_1642,piloto1,2020.2.5,60.286142141216814,
1000,0.0,imagenes/Brocoli.jpg,0.24293074945529525,None,0,1,1,3,0,8,8,21,,,101.29153615995892,102.29216529999394,102.27558010001667,None,3.526041666666667,1.6291978999506682,102.27558010001667,None,,,,,,,,,,,,,h,001,2020_Nov_09_1642,piloto1,2020.2.5,60.286142141216814,
1000,0.0,imagenes/Banano.jpeg,0.2267656716538785,None,0,1,1,3,0,9,9,1,,,102.94218926000758,None,103.94215309998253,None,3.526041666666667,1.9737385000335053,103.94215309998253,None,,,,,,,,,,,,,h,001,2020_Nov_09_1642,piloto1,2020.2.5,60.286142141216814,
1000,0.0,imagenes/Papas-pollo.jpg,0.08373485417902837,None,0,1,1,3,0,10,10,15,,,104.94135606000782,105.94178789999569,105.94178789999569,None,3.526041666666667,1.8589340999606065,105.94178789999569,None,,,,,,,,,,,,,h,001,2020_Nov_09_1642,piloto1,2020.2.5,60.286142141216814,
1000,0.0,imagenes/Rosquitas (1).jpg,0.024090340010977873,None,0,1,1,3,0,11,11,17,,,106.84132601995952,107.84168419998605,107.82538039999781,None,3.526041666666667,1.4660495000425726,107.82538039999781,None,,,,,,,,,,,,,h,001,2020_Nov_09_1642,piloto1,2020.2.5,60.286142141216814,
1000,0.0,imagenes/Papas picantes.jpg,0.524978898672612,None,0,1,1,3,0,12,12,27,,,108.32474435996846,109.32513189996826,109.32513189996826,None,3.526041666666667,2.060610899992753,109.32513189996826,None,,,,,,,,,,,,,h,001,2020_Nov_09_1642,piloto1,2020.2.5,60.286142141216814,
1000,0.0,imagenes/Papas-limon.jpg,0.5280798509093595,None,0,1,1,3,0,13,13,14,,,110.40831026001251,111.40819300001021,111.40819300001021,None,3.526041666666667,1.9057766000041738,111.40819300001021,None,,,,,,,,,,,,,h,001,2020_Nov_09_1642,piloto1,2020.2.5,60.286142141216814,
1000,0.0,imagenes/Nutella (1).jpg,0.8826531883338111,None,0,1,1,3,0,14,14,12,,,112.35822791996179,None,113.34172149997903,None,3.526041666666667,1.967598800023552,113.34172149997903,None,,,,,,,,,,,,,h,001,2020_Nov_09_1642,piloto1,2020.2.5,60.286142141216814,
1000,0.0,imagenes/Alpinito.jpg,0.7416150880621702,None,0,1,1,3,0,15,15,0,,,114.37466167999082,115.37497459998121,115.35829050000757,None,3.526041666666667,1.6664755000383593,115.35829050000757,None,,,,,,,,,,,,,h,001,2020_Nov_09_1642,piloto1,2020.2.5,60.286142141216814,
1000,0.0,imagenes/Kiwi.jpg,0.3929145850942286,None,0,1,1,3,0,16,16,8,,,116.07440061995294,117.07476659998065,117.05772489996161,None,3.526041666666667,1.6473252999712713,117.05772489996161,None,,,,,,,,,,,,,h,001,2020_Nov_09_1642,piloto1,2020.2.5,60.286142141216814,
1000,0.0,imagenes/Galletas Tosh.jpg,0.9129693753280027,None,0,1,1,3,0,17,17,6,,,117.77417437997065,None,118.75782970001455,None,3.526041666666667,1.663593800039962,118.75782970001455,None,,,,,,,,,,,,,h,001,2020_Nov_09_1642,piloto1,2020.2.5,60.286142141216814,
1000,0.0,imagenes/Canelazo.png,0.6730479360767814,None,0,1,1,3,0,18,18,22,,,119.50744683999801,None,120.49118419998558,None,3.526041666666667,1.7860924000269733,120.49118419998558,None,,,,,,,,,,,,,h,001,2020_Nov_09_1642,piloto1,2020.2.5,60.286142141216814,
1000,0.0,imagenes/Leche-de-almendras.jpg,0.3886559457994673,None,0,1,1,3,0,19,19,9,,,121.40728671997203,None,122.39104039996164,None,3.526041666666667,1.3674789000069723,122.39104039996164,None,,,,,,,,,,,,,h,001,2020_Nov_09_1642,piloto1,2020.2.5,60.286142141216814,
1000,0.0,imagenes/Uvas.jpg,0.4959291644143431,None,0,1,1,3,0,20,20,19,,,122.79102075999253,123.7907943999744,123.7907943999744,None,3.526041666666667,1.6418062999728136,123.7907943999744,None,,,,,,,,,,,,,h,001,2020_Nov_09_1642,piloto1,2020.2.5,60.286142141216814,
1000,0.0,imagenes/Yogurt-alpina.jpg,0.5445152936222175,None,0,1,1,3,0,21,21,18,,,124.4574452599918,125.45766399998683,125.45766399998683,None,3.526041666666667,1.5105855999863707,125.45766399998683,None,,,,,,,,,,,,,h,001,2020_Nov_09_1642,piloto1,2020.2.5,60.286142141216814,
1000,0.0,imagenes/Pizzetas.png,0.3295951589873042,None,0,1,1,3,0,22,22,32,,,126.0071373200044,127.0074847000069,127.0074847000069,None,3.526041666666667,1.9726511999615468,127.0074847000069,None,,,,,,,,,,,,,h,001,2020_Nov_09_1642,piloto1,2020.2.5,60.286142141216814,
1000,0.0,imagenes/salchicha hojaldrada.jpg,0.7119773165481526,None,0,1,1,3,0,23,23,35,,,128.00728076000814,None,128.99096490000375,None,3.526041666666667,1.6326948000350967,128.99096490000375,None,,,,,,,,,,,,,h,001,2020_Nov_09_1642,piloto1,2020.2.5,60.286142141216814,
1000,0.0,imagenes/Chocoramo.jfif.jpg,0.7425528559884101,None,0,1,1,3,0,24,24,4,,,129.6737366199959,130.6743235999602,130.6569451999967,None,None,None,130.6569451999967,None,,,,,,,,,,,,,h,001,2020_Nov_09_1642,piloto1,2020.2.5,60.286142141216814,
1000,0.0,imagenes/Croissant.jpg,0.5824748589948932,None,0,1,1,3,0,25,25,5,,,132.67362651997246,133.67385209997883,133.65706170001067,132.66901309997775,3.526041666666667,2.5281176999560557,133.65706170001067,132.66901309997775,,,,,,,,,,,,,h,001,2020_Nov_09_1642,piloto1,2020.2.5,60.286142141216814,
1000,0.0,imagenes/Popetas.jpg,0.9621625733302204,None,0,1,1,3,0,26,26,16,,,135.25713667998207,None,136.24164690001635,None,None,None,136.24164690001635,None,,,,,,,,,,,,,h,001,2020_Nov_09_1642,piloto1,2020.2.5,60.286142141216814,
1000,0.0,imagenes/Muffin de banano.png,0.9610615059009696,None,0,1,1,3,0,27,27,25,,,138.29004127994995,None,139.27353800000856,138.27955370000564,3.526041666666667,2.301336300035473,139.27353800000856,138.27955370000564,,,,,,,,,,,,,h,001,2020_Nov_09_1642,piloto1,2020.2.5,60.286142141216814,
1000,0.0,imagenes/Pepinillos.png,0.0038966441241518046,None,0,1,1,3,0,28,28,28,,,140.62326501996722,141.62358359998325,141.62358359998325,None,3.526041666666667,1.9759823000058532,141.62358359998325,None,,,,,,,,,,,,,h,001,2020_Nov_09_1642,piloto1,2020.2.5,60.286142141216814,
1000,0.0,imagenes/Papas-naturales.jpg,0.37590629905521566,None,0,1,1,3,0,29,29,13,,,142.62352826001006,143.62333859998034,143.62333859998034,None,None,None,143.62333859998034,None,,,,,,,,,,,,,h,001,2020_Nov_09_1642,piloto1,2020.2.5,60.286142141216814,
1000,0.0,imagenes/Pescadito.png,0.7172825011486081,None,0,1,1,3,0,30,30,29,,,145.64015791995917,None,146.62317659996916,145.6332923999871,3.526041666666667,2.063241299998481,146.62317659996916,145.6332923999871,,,,,,,,,,,,,h,001,2020_Nov_09_1642,piloto1,2020.2.5,60.286142141216814,
1000,0.0,imagenes/Coliflor.jpg,0.3640740491088985,None,0,1,1,3,0,31,31,24,,,147.72376585999154,148.72300210001413,148.72300210001413,None,3.526041666666667,2.2264503000187688,148.72300210001413,None,,,,,,,,,,,,,h,001,2020_Nov_09_1642,piloto1,2020.2.5,60.286142141216814,
1000,0.0,imagenes/Manzana.jpg,0.4048420327008191,None,0,1,1,3,0,32,32,11,,,149.98948821995873,None,150.97256689995993,None,3.526041666666667,2.4290634999633767,150.97256689995993,None,,,,,,,,,,,,,h,001,2020_Nov_09_1642,piloto1,2020.2.5,60.286142141216814,
1000,0.0,imagenes/Mango.jpeg,0.4341155418941499,None,0,1,1,3,0,33,33,10,,,152.4561850199825,None,153.43972119997488,None,3.526041666666667,1.894707900006324,153.43972119997488,None,,,,,,,,,,,,,h,001,2020_Nov_09_1642,piloto1,2020.2.5,60.286142141216814,
1000,0.0,imagenes/Chontaduro.png,0.8693553300418813,None,0,1,1,3,0,34,34,23,,,154.37241555997753,155.37338489998365,155.37338489998365,None,3.526041666666667,1.7407952999928966,155.37338489998365,None,,,,,,,,,,,,,h,001,2020_Nov_09_1642,piloto1,2020.2.5,60.286142141216814,
1000,0.0,imagenes/pistachos.jpg,0.7450869742741464,None,0,1,1,3,0,35,35,30,,,156.13941415995941,None,157.12252769997576,None,3.526041666666667,1.7647018000134267,157.12252769997576,None,,,,,,,,,,,,,h,001,2020_Nov_09_1642,piloto1,2020.2.5,60.286142141216814,
1000,0.0,,,,0,1,1,3,,,,,,,,,,,,,,,,,,,,,,,,,,,h,001,2020_Nov_09_1642,piloto1,2020.2.5,60.286142141216814,
400,0.02,imagenes/Mango.jpeg,0.4341155418941499,None,0,2,2,0,0,0,0,10,,,157.9395386200049,158.93922269996256,158.93922269996256,None,3.526041666666667,1.6896245999960229,158.93922269996256,None,,,,,,,,,,,,,h,001,2020_Nov_09_1642,piloto1,2020.2.5,60.286142141216814,
400,0.02,imagenes/Alpinito.jpg,0.7416150880621702,None,0,2,2,0,0,1,1,0,,,159.689022979961,None,160.67236409999896,None,3.526041666666667,1.7463363999850117,160.67236409999896,None,,,,,,,,,,,,,h,001,2020_Nov_09_1642,piloto1,2020.2.5,60.286142141216814,
400,0.02,imagenes/Brownie.jpg,0.2838924074864093,None,0,2,2,0,0,2,2,3,,,161.48889777998556,162.48916880000615,162.48916880000615,None,3.526041666666667,2.0918629999505356,162.48916880000615,None,,,,,,,,,,,,,h,001,2020_Nov_09_1642,piloto1,2020.2.5,60.286142141216814,
400,0.02,imagenes/Pepinillos.png,0.0038966441241518046,None,0,2,2,0,0,3,3,28,,,163.63887947998592,164.6393895999645,164.6393895999645,None,3.526041666666667,1.8279116000048816,164.6393895999645,None,,,,,,,,,,,,,h,001,2020_Nov_09_1642,piloto1,2020.2.5,60.286142141216814,
400,0.02,imagenes/Kiwi.jpg,0.3929145850942286,None,0,2,2,0,0,4,4,8,,,165.48887835998903,None,166.48901670001214,None,3.526041666666667,1.9892594000557438,166.48901670001214,None,,,,,,,,,,,,,h,001,2020_Nov_09_1642,piloto1,2020.2.5,60.286142141216814,
400,0.02,imagenes/Chocoramo.jfif.jpg,0.7425528559884101,None,0,2,2,0,0,5,5,4,,,167.52222241996787,None,168.50526239996543,None,3.526041666666667,2.1448821000522003,168.50526239996543,None,,,,,,,,,,,,,h,001,2020_Nov_09_1642,piloto1,2020.2.5,60.286142141216814,
400,0.02,imagenes/Papas-limon.jpg,0.5280798509093595,None,0,2,2,0,0,6,6,14,,,169.68855445997906,170.68867760000285,170.68867760000285,None,3.526041666666667,1.727561199979391,170.68867760000285,None,,,,,,,,,,,,,h,001,2020_Nov_09_1642,piloto1,2020.2.5,60.286142141216814,
400,0.02,imagenes/Rollo de queso.png,0.9201641182756888,None,0,2,2,0,0,7,7,33,,,171.4552174200071,172.45554419996915,172.45554419996915,None,3.526041666666667,2.0757177000050433,172.45554419996915,None,,,,,,,,,,,,,h,001,2020_Nov_09_1642,piloto1,2020.2.5,60.286142141216814,
400,0.02,imagenes/Brocoli.jpg,0.24293074945529525,None,0,2,2,0,0,8,8,21,,,173.55509105997044,174.5556636999827,174.5556636999827,None,3.526041666666667,2.0082367999712005,174.5556636999827,None,,,,,,,,,,,,,h,001,2020_Nov_09_1642,piloto1,2020.2.5,60.286142141216814,
400,0.02,imagenes/Nutella (1).jpg,0.8826531883338111,None,0,2,2,0,0,9,9,12,,,175.58870736000245,None,176.58828540000832,None,3.526041666666667,2.1044378000078723,176.58828540000832,None,,,,,,,,,,,,,h,001,2020_Nov_09_1642,piloto1,2020.2.5,60.286142141216814,
400,0.02,imagenes/bon-bon-bun.jpg,0.7417452724056987,None,0,2,2,0,0,10,10,2,,,177.73839091998525,178.73815170000307,178.73815170000307,None,3.526041666666667,1.777639799984172,178.73815170000307,None,,,,,,,,,,,,,h,001,2020_Nov_09_1642,piloto1,2020.2.5,60.286142141216814,
400,0.02,imagenes/pistachos.jpg,0.7450869742741464,None,0,2,2,0,0,11,11,30,,,179.53810946000158,None,180.52153089997591,None,3.526041666666667,2.0292579000233673,180.52153089997591,None,,,,,,,,,,,,,h,001,2020_Nov_09_1642,piloto1,2020.2.5,60.286142141216814,
400,0.02,imagenes/Chontaduro.png,0.8693553300418813,None,0,2,2,0,0,12,12,23,,,181.60453141998732,None,182.58803749998333,None,3.526041666666667,1.336103199981153,182.58803749998333,None,,,,,,,,,,,,,h,001,2020_Nov_09_1642,piloto1,2020.2.5,60.286142141216814,
400,0.02,imagenes/salchicha hojaldrada.jpg,0.7119773165481526,None,0,2,2,0,0,13,13,35,,,182.95465095996042,183.9548964999849,183.9381917999708,None,3.526041666666667,2.278861099970527,183.9381917999708,None,,,,,,,,,,,,,h,001,2020_Nov_09_1642,piloto1,2020.2.5,60.286142141216814,
400,0.02,imagenes/Pescadito.png,0.7172825011486081,None,0,2,2,0,0,14,14,29,,,185.2544956599886,186.25549630000023,186.25549630000023,None,None,None,186.25549630000023,None,,,,,,,,,,,,,h,001,2020_Nov_09_1642,piloto1,2020.2.5,60.286142141216814,
400,0.02,imagenes/Manzana.jpg,0.4048420327008191,None,0,2,2,0,0,15,15,11,,,188.2878688799974,None,189.28831029997673,188.2862865999923,3.526041666666667,1.8437229000264779,189.28831029997673,188.2862865999923,,,,,,,,,,,,,h,001,2020_Nov_09_1642,piloto1,2020.2.5,60.286142141216814,
400,0.02,imagenes/Yogurt-alpina.jpg,0.5445152936222175,None,0,2,2,0,0,16,16,18,,,190.17139561998192,191.17114469996886,191.1546013999614,None,3.526041666666667,1.8307614999939688,191.1546013999614,None,,,,,,,,,,,,,h,001,2020_Nov_09_1642,piloto1,2020.2.5,60.286142141216814,
400,0.02,imagenes/Croissant.jpg,0.5824748589948932,None,0,2,2,0,0,17,17,5,,,192.03790331998607,None,193.02217869996093,None,3.526041666666667,2.11732259998098,193.02217869996093,None,,,,,,,,,,,,,h,001,2020_Nov_09_1642,piloto1,2020.2.5,60.286142141216814,
400,0.02,imagenes/Papas picantes.jpg,0.524978898672612,None,0,2,2,0,0,18,18,27,,,194.1712998599687,195.17091699998127,195.15423639997607,None,3.526041666666667,1.882210599957034,195.15423639997607,None,,,,,,,,,,,,,h,001,2020_Nov_09_1642,piloto1,2020.2.5,60.286142141216814,
400,0.02,imagenes/Leche-de-almendras.jpg,0.3886559457994673,None,0,2,2,0,0,19,19,9,,,196.1543393599568,197.15430399996694,197.13791489996947,None,3.526041666666667,1.3466310999938287,197.13791489996947,None,,,,,,,,,,,,,h,001,2020_Nov_09_1642,piloto1,2020.2.5,60.286142141216814,
400,0.02,imagenes/Coliflor.jpg,0.3640740491088985,None,0,2,2,0,0,20,20,24,,,197.53755151998485,None,198.5206579999649,None,3.526041666666667,1.7979134000488557,198.5206579999649,None,,,,,,,,,,,,,h,001,2020_Nov_09_1642,piloto1,2020.2.5,60.286142141216814,
400,0.02,imagenes/Pizza.png,0.21192443516553439,None,0,2,2,0,0,21,21,31,,,199.354320059967,200.3544560999726,200.3544560999726,None,3.526041666666667,2.255339000024833,200.3544560999726,None,,,,,,,,,,,,,h,001,2020_Nov_09_1642,piloto1,2020.2.5,60.286142141216814,
400,0.02,imagenes/Popetas.jpg,0.9621625733302204,None,0,2,2,0,0,22,22,16,,,201.67058547996567,None,202.6539405999938,None,3.526041666666667,2.9651748000178486,202.6539405999938,None,,,,,,,,,,,,,h,001,2020_Nov_09_1642,piloto1,2020.2.5,60.286142141216814,
400,0.02,imagenes/Pandebono.png,0.8988574378129985,None,0,2,2,0,0,23,23,26,,,204.6706301199738,None,205.65394079999533,204.66238009999506,None,None,205.65394079999533,204.66238009999506,,,,,,,,,,,,,h,001,2020_Nov_09_1642,piloto1,2020.2.5,60.286142141216814,
400,0.02,imagenes/Rollos de canela.png,0.2610974409574519,None,0,2,2,0,0,24,24,34,,,207.67061671998817,None,208.6535501999897,207.66238729999168,3.526041666666667,1.4827748000388965,208.6535501999897,207.66238729999168,,,,,,,,,,,,,h,001,2020_Nov_09_1642,piloto1,2020.2.5,60.286142141216814,
400,0.02,imagenes/Uvas.jpg,0.4959291644143431,None,0,2,2,0,0,25,25,19,,,209.17018335996545,None,210.17018650000682,None,3.526041666666667,1.6893976000137627,210.17018650000682,None,,,,,,,,,,,,,h,001,2020_Nov_09_1642,piloto1,2020.2.5,60.286142141216814,
400,0.02,imagenes/Pizzetas.png,0.3295951589873042,None,0,2,2,0,0,26,26,32,,,210.91999787997338,None,211.90357520000543,None,3.526041666666667,1.9870524000143632,211.90357520000543,None,,,,,,,,,,,,,h,001,2020_Nov_09_1642,piloto1,2020.2.5,60.286142141216814,
400,0.02,imagenes/Galletas Tosh.jpg,0.9129693753280027,None,0,2,2,0,0,27,27,6,,,212.9532751799852,None,213.93671849998645,None,3.526041666666667,2.1344418000080623,213.93671849998645,None,,,,,,,,,,,,,h,001,2020_Nov_09_1642,piloto1,2020.2.5,60.286142141216814,
400,0.02,imagenes/Papas-naturales.jpg,0.37590629905521566,None,0,2,2,0,0,28,28,13,,,215.10357445999398,216.10324879997643,216.10324879997643,None,3.526041666666667,2.2707692999974824,216.10324879997643,None,,,,,,,,,,,,,h,001,2020_Nov_09_1642,piloto1,2020.2.5,60.286142141216814,
400,0.02,imagenes/Papas-pollo.jpg,0.08373485417902837,None,0,2,2,0,0,29,29,15,,,217.40349985999637,218.40326280001318,218.40326280001318,None,3.526041666666667,2.9734663999988697,218.40326280001318,None,,,,,,,,,,,,,h,001,2020_Nov_09_1642,piloto1,2020.2.5,60.286142141216814,
400,0.02,imagenes/Galletas-festival.jpg,0.11306074364032936,None,0,2,2,0,0,30,30,7,,,220.42001591995358,None,221.40300849999767,220.4115279999678,None,None,221.40300849999767,220.4115279999678,,,,,,,,,,,,,h,001,2020_Nov_09_1642,piloto1,2020.2.5,60.286142141216814,
400,0.02,imagenes/Almojabanas.png,0.6725051200713246,None,0,2,2,0,0,31,31,20,,,223.41923751996364,224.4194478999707,224.4194478999707,223.4218283999944,3.526041666666667,1.1716332000214607,224.4194478999707,223.4218283999944,,,,,,,,,,,,,h,001,2020_Nov_09_1642,piloto1,2020.2.5,60.286142141216814,
400,0.02,imagenes/Muffin de banano.png,0.9610615059009696,None,0,2,2,0,0,32,32,25,,,224.65264827999636,225.65269879996777,225.65269879996777,None,3.526041666666667,2.0765561999869533,225.65269879996777,None,,,,,,,,,,,,,h,001,2020_Nov_09_1642,piloto1,2020.2.5,60.286142141216814,
400,0.02,imagenes/Banano.jpeg,0.2267656716538785,None,0,2,2,0,0,33,33,1,,,226.7530835600046,227.75322099996265,227.75322099996265,None,3.526041666666667,2.30359609995503,227.75322099996265,None,,,,,,,,,,,,,h,001,2020_Nov_09_1642,piloto1,2020.2.5,60.286142141216814,
400,0.02,imagenes/Rosquitas (1).jpg,0.024090340010977873,None,0,2,2,0,0,34,34,17,,,229.10239991999697,230.10276410001097,230.08587469998747,None,3.526041666666667,1.8281866000033915,230.08587469998747,None,,,,,,,,,,,,,h,001,2020_Nov_09_1642,piloto1,2020.2.5,60.286142141216814,
400,0.02,imagenes/Canelazo.png,0.6730479360767814,None,0,2,2,0,0,35,35,22,,,231.00248983997153,None,231.98638849996496,None,3.526041666666667,1.8831518000224605,231.98638849996496,None,,,,,,,,,,,,,h,001,2020_Nov_09_1642,piloto1,2020.2.5,60.286142141216814,
400,0.02,,,,0,2,2,0,,,,,,,,,,,,,,,,,,,,,,,,,,,h,001,2020_Nov_09_1642,piloto1,2020.2.5,60.286142141216814,
1000,0.02,imagenes/Papas-limon.jpg,0.5280798509093595,None,0,3,3,2,0,0,0,14,,,232.9194130199612,None,233.9021250999649,None,3.526041666666667,2.0663095000199974,233.9021250999649,None,,,,,,,,,,,,,h,001,2020_Nov_09_1642,piloto1,2020.2.5,60.286142141216814,
1000,0.02,imagenes/Galletas-festival.jpg,0.11306074364032936,None,0,3,3,2,0,1,1,7,,,235.01947991998168,None,236.0023249000078,None,3.526041666666667,2.211745799984783,236.0023249000078,None,,,,,,,,,,,,,h,001,2020_Nov_09_1642,piloto1,2020.2.5,60.286142141216814,
1000,0.02,imagenes/Papas-pollo.jpg,0.08373485417902837,None,0,3,3,2,0,2,2,15,,,237.25296705999062,238.25235709996196,238.25235709996196,None,3.526041666666667,1.543090499995742,238.25235709996196,None,,,,,,,,,,,,,h,001,2020_Nov_09_1642,piloto1,2020.2.5,60.286142141216814,
1000,0.02,imagenes/Manzana.jpg,0.4048420327008191,None,0,3,3,2,0,3,3,11,,,238.8358237199718,239.83584469999187,239.81959379999898,None,3.526041666666667,1.2775347999995574,239.81959379999898,None,,,,,,,,,,,,,h,001,2020_Nov_09_1642,piloto1,2020.2.5,60.286142141216814,
1000,0.02,imagenes/Pescadito.png,0.7172825011486081,None,0,3,3,2,0,4,4,29,,,240.15208221995272,241.15230549999978,241.13593549997313,None,3.526041666666667,1.8300581999938004,241.13593549997313,None,,,,,,,,,,,,,h,001,2020_Nov_09_1642,piloto1,2020.2.5,60.286142141216814,
1000,0.02,imagenes/Yogurt-alpina.jpg,0.5445152936222175,None,0,3,3,2,0,5,5,18,,,242.01900001999456,None,243.0019132999587,None,3.526041666666667,2.466203799995128,243.0019132999587,None,,,,,,,,,,,,,h,001,2020_Nov_09_1642,piloto1,2020.2.5,60.286142141216814,
1000,0.02,imagenes/Coliflor.jpg,0.3640740491088985,None,0,3,3,2,0,6,6,24,,,244.50244365996332,245.50217079999857,245.50217079999857,None,None,None,245.50217079999857,None,,,,,,,,,,,,,h,001,2020_Nov_09_1642,piloto1,2020.2.5,60.286142141216814,
1000,0.02,imagenes/bon-bon-bun.jpg,0.7417452724056987,None,0,3,3,2,0,7,7,2,,,247.51869241998065,248.51848139998037,248.51848139998037,247.5218806999619,3.526041666666667,1.9541128000128083,248.51848139998037,247.5218806999619,,,,,,,,,,,,,h,001,2020_Nov_09_1642,piloto1,2020.2.5,60.286142141216814,
1000,0.02,imagenes/pistachos.jpg,0.7450869742741464,None,0,3,3,2,0,8,8,30,,,249.50196655999753,None,250.50184479996096,None,None,None,250.50184479996096,None,,,,,,,,,,,,,h,001,2020_Nov_09_1642,piloto1,2020.2.5,60.286142141216814,
1000,0.02,imagenes/Chocoramo.jfif.jpg,0.7425528559884101,None,0,3,3,2,0,9,9,4,,,252.51844821998384,None,253.51833079999778,252.51656929997262,3.526041666666667,2.107949099969119,253.51833079999778,252.51656929997262,,,,,,,,,,,,,h,001,2020_Nov_09_1642,piloto1,2020.2.5,60.286142141216814,
1000,0.02,imagenes/Pizzetas.png,0.3295951589873042,None,0,3,3,2,0,10,10,32,,,254.68500537998625,255.6846341000055,255.66885159997037,None,None,None,255.66885159997037,None,,,,,,,,,,,,,h,001,2020_Nov_09_1642,piloto1,2020.2.5,60.286142141216814,
1000,0.02,imagenes/Rollos de canela.png,0.2610974409574519,None,0,3,3,2,0,11,11,34,,,257.6846942199627,258.6849629000062,258.6690385999973,257.67451179999625,3.526041666666667,1.8507763000088744,258.6690385999973,257.67451179999625,,,,,,,,,,,,,h,001,2020_Nov_09_1642,piloto1,2020.2.5,60.286142141216814,
1000,0.02,imagenes/Banano.jpeg,0.2267656716538785,None,0,3,3,2,0,12,12,1,,,259.5680725199636,None,260.551267599978,None,3.526041666666667,1.6186537999892607,260.551267599978,None,,,,,,,,,,,,,h,001,2020_Nov_09_1642,piloto1,2020.2.5,60.286142141216814,
1000,0.02,imagenes/Pepinillos.png,0.0038966441241518046,None,0,3,3,2,0,13,13,28,,,261.2179403199698,262.21814419998555,262.21814419998555,None,3.526041666666667,1.5703455000184476,262.21814419998555,None,,,,,,,,,,,,,h,001,2020_Nov_09_1642,piloto1,2020.2.5,60.286142141216814,
1000,0.02,imagenes/Papas-naturales.jpg,0.37590629905521566,None,0,3,3,2,0,14,14,13,,,262.83443401998375,263.834687799972,263.81813099997817,None,3.526041666666667,1.715684599999804,263.81813099997817,None,,,,,,,,,,,,,h,001,2020_Nov_09_1642,piloto1,2020.2.5,60.286142141216814,
1000,0.02,imagenes/Rollo de queso.png,0.9201641182756888,None,0,3,3,2,0,15,15,33,,,264.58418951998465,265.5842869000044,265.5842869000044,None,3.526041666666667,1.9727912000380456,265.5842869000044,None,,,,,,,,,,,,,h,001,2020_Nov_09_1642,piloto1,2020.2.5,60.286142141216814,
1000,0.02,imagenes/Galletas Tosh.jpg,0.9129693753280027,None,0,3,3,2,0,16,16,6,,,266.6005336199887,267.60103399999207,267.5839907999616,None,3.526041666666667,2.2618367000250146,267.5839907999616,None,,,,,,,,,,,,,h,001,2020_Nov_09_1642,piloto1,2020.2.5,60.286142141216814,
1000,0.02,imagenes/Canelazo.png,0.6730479360767814,None,0,3,3,2,0,17,17,22,,,268.9174786799995,None,269.9006655999692,None,None,None,269.9006655999692,None,,,,,,,,,,,,,h,001,2020_Nov_09_1642,piloto1,2020.2.5,60.286142141216814,
1000,0.02,imagenes/Rosquitas (1).jpg,0.024090340010977873,None,0,3,3,2,0,18,18,17,,,271.91727741999784,None,272.9005800000159,271.90736139996443,3.526041666666667,1.6162366000353359,272.9005800000159,271.90736139996443,,,,,,,,,,,,,h,001,2020_Nov_09_1642,piloto1,2020.2.5,60.286142141216814,
1000,0.02,imagenes/Almojabanas.png,0.6725051200713246,None,0,3,3,2,0,19,19,20,,,273.5669126199791,None,274.55032859998755,None,3.526041666666667,2.7281453000032343,274.55032859998755,None,,,,,,,,,,,,,h,001,2020_Nov_09_1642,piloto1,2020.2.5,60.286142141216814,
1000,0.02,imagenes/Pandebono.png,0.8988574378129985,None,0,3,3,2,0,20,20,26,,,276.333771620004,277.33416709996527,277.3176613000105,None,3.526041666666667,1.4956817000056617,277.3176613000105,None,,,,,,,,,,,,,h,001,2020_Nov_09_1642,piloto1,2020.2.5,60.286142141216814,
1000,0.02,imagenes/Chontaduro.png,0.8693553300418813,None,0,3,3,2,0,21,21,23,,,277.85058335997746,278.85051369998837,278.85051369998837,None,3.526041666666667,1.5713119999854825,278.85051369998837,None,,,,,,,,,,,,,h,001,2020_Nov_09_1642,piloto1,2020.2.5,60.286142141216814,
1000,0.02,imagenes/Nutella (1).jpg,0.8826531883338111,None,0,3,3,2,0,22,22,12,,,279.45037155997125,280.45021470001666,280.45021470001666,None,3.526041666666667,1.8871913999901153,280.45021470001666,None,,,,,,,,,,,,,h,001,2020_Nov_09_1642,piloto1,2020.2.5,60.286142141216814,
1000,0.02,imagenes/Uvas.jpg,0.4959291644143431,None,0,3,3,2,0,23,23,19,,,281.3669437599892,None,282.3672322999919,None,3.526041666666667,1.756291900004726,282.3672322999919,None,,,,,,,,,,,,,h,001,2020_Nov_09_1642,piloto1,2020.2.5,60.286142141216814,
1000,0.02,imagenes/salchicha hojaldrada.jpg,0.7119773165481526,None,0,3,3,2,0,24,24,35,,,283.1503378599591,284.1500512000057,284.13341239996953,None,3.526041666666667,1.6631410000263713,284.13341239996953,None,,,,,,,,,,,,,h,001,2020_Nov_09_1642,piloto1,2020.2.5,60.286142141216814,
1000,0.02,imagenes/Pizza.png,0.21192443516553439,None,0,3,3,2,0,25,25,31,,,284.85036141995806,285.85010370000964,285.83355709997704,None,3.526041666666667,1.6286598999868147,285.83355709997704,None,,,,,,,,,,,,,h,001,2020_Nov_09_1642,piloto1,2020.2.5,60.286142141216814,
1000,0.02,imagenes/Kiwi.jpg,0.3929145850942286,None,0,3,3,2,0,26,26,8,,,286.50014995996025,287.500046000001,287.500046000001,None,3.526041666666667,1.6908712000004016,287.500046000001,None,,,,,,,,,,,,,h,001,2020_Nov_09_1642,piloto1,2020.2.5,60.286142141216814,
1000,0.02,imagenes/Brocoli.jpg,0.24293074945529525,None,0,3,3,2,0,27,27,21,,,288.2165990599606,None,289.2170698000118,None,3.526041666666667,1.6237844999996014,289.2170698000118,None,,,,,,,,,,,,,h,001,2020_Nov_09_1642,piloto1,2020.2.5,60.286142141216814,
1000,0.02,imagenes/Brownie.jpg,0.2838924074864093,None,0,3,3,2,0,28,28,3,,,289.89974747996894,290.8998575999867,290.8998575999867,None,3.526041666666667,1.592270900029689,290.8998575999867,None,,,,,,,,,,,,,h,001,2020_Nov_09_1642,piloto1,2020.2.5,60.286142141216814,
1000,0.02,imagenes/Leche-de-almendras.jpg,0.3886559457994673,None,0,3,3,2,0,29,29,9,,,291.59954025998013,292.5995605000062,292.5995605000062,None,3.526041666666667,2.676036800025031,292.5995605000062,None,,,,,,,,,,,,,h,001,2020_Nov_09_1642,piloto1,2020.2.5,60.286142141216814,
1000,0.02,imagenes/Alpinito.jpg,0.7416150880621702,None,0,3,3,2,0,30,30,0,,,294.33257277999655,None,295.33318499999586,None,3.526041666666667,1.655544999986887,295.33318499999586,None,,,,,,,,,,,,,h,001,2020_Nov_09_1642,piloto1,2020.2.5,60.286142141216814,
1000,0.02,imagenes/Papas picantes.jpg,0.524978898672612,None,0,3,3,2,0,31,31,27,,,296.01622615996166,None,297.0015606000088,None,3.526041666666667,1.9160848999745212,297.0015606000088,None,,,,,,,,,,,,,h,001,2020_Nov_09_1642,piloto1,2020.2.5,60.286142141216814,
1000,0.02,imagenes/Croissant.jpg,0.5824748589948932,None,0,3,3,2,0,32,32,5,,,297.99958613998024,298.99938329996075,298.99938329996075,None,3.526041666666667,1.6087653000140563,298.99938329996075,None,,,,,,,,,,,,,h,001,2020_Nov_09_1642,piloto1,2020.2.5,60.286142141216814,
1000,0.02,imagenes/Mango.jpeg,0.4341155418941499,None,0,3,3,2,0,33,33,10,,,299.6333113599976,300.63291659997776,300.63291659997776,None,3.526041666666667,2.4405258999904618,300.63291659997776,None,,,,,,,,,,,,,h,001,2020_Nov_09_1642,piloto1,2020.2.5,60.286142141216814,
1000,0.02,imagenes/Popetas.jpg,0.9621625733302204,None,0,3,3,2,0,34,34,16,,,302.14910093997605,303.1490097999922,303.13255179999396,None,3.526041666666667,2.0136314000119455,303.13255179999396,None,,,,,,,,,,,,,h,001,2020_Nov_09_1642,piloto1,2020.2.5,60.286142141216814,
1000,0.02,imagenes/Muffin de banano.png,0.9610615059009696,None,0,3,3,2,0,35,35,25,,,304.19916441995883,None,305.19925850001164,None,3.526041666666667,2.0906207999796607,305.19925850001164,None,,,,,,,,,,,,,h,001,2020_Nov_09_1642,piloto1,2020.2.5,60.286142141216814,
1000,0.02,,,,0,3,3,2,,,,,,,,,,,,,,,,,,,,,,,,,,,h,001,2020_Nov_09_1642,piloto1,2020.2.5,60.286142141216814,
,,,,,,,,,,,,,,,,,,,,,,,306.31637819996104,None,307.3165286000003,None,308.32664779998595,None,309.3640138999908,None,310.3663383999956,None,312.38622210000176,None,,,,,,,
