Hertz,volumen,Imagenes,Random,Correcto,trials.thisRepN,trials.thisTrialN,trials.thisN,trials.thisIndex,trials_2.thisRepN,trials_2.thisTrialN,trials_2.thisN,trials_2.thisIndex,sound_3.started,sound_3.stopped,Sonido.started,Sonido.stopped,image_2.started,image_2.stopped,slider_2.response,slider_2.rt,slider_2.started,slider_2.stopped,text_2.started,text_2.stopped,text_3.started,text_3.stopped,text.started,text.stopped,participant,session,date,expName,psychopyVersion,frameRate,
1000,0.02,imagenes/bon-bon-bun.jpg,0.7417452724056987,None,0,0,0,2,0,0,0,2,46.58470398004574,None,56.920400200004224,None,58.00625520000176,None,3.3763020833333335,2.0003037999995286,58.00625520000176,None,,,,,,,hola,001,2020_Dec_15_1342,piloto1,2020.2.5,59.989333895528695,
1000,0.02,imagenes/Almojabanas.png,0.6725051200713246,None,0,0,0,2,0,1,1,20,,,59.03763442000199,None,60.023226599994814,None,3.0442708333333335,1.438153199997032,60.023226599994814,None,,,,,,,hola,001,2020_Dec_15_1342,piloto1,2020.2.5,59.989333895528695,
1000,0.02,imagenes/Chocoramo.jfif.jpg,0.7425528559884101,None,0,0,0,2,0,2,2,4,,,60.538085540008616,None,61.523220000002766,None,3.1809895833333335,1.496548700000858,61.523220000002766,None,,,,,,,hola,001,2020_Dec_15_1342,piloto1,2020.2.5,59.989333895528695,
1000,0.02,imagenes/Muffin de banano.png,0.9610615059009696,None,0,0,0,2,0,3,3,25,,,62.18782333999989,None,63.154593600003864,None,3.571614583333333,1.818746499993722,63.154593600003864,None,,,,,,,hola,001,2020_Dec_15_1342,piloto1,2020.2.5,59.989333895528695,
1000,0.02,imagenes/Papas-limon.jpg,0.5280798509093595,None,0,0,0,2,0,4,4,14,,,64.0375528200064,None,65.03806999999506,None,3.571614583333333,1.4283320999966236,65.03806999999506,None,,,,,,,hola,001,2020_Dec_15_1342,piloto1,2020.2.5,59.989333895528695,
1000,0.02,imagenes/Nutella (1).jpg,0.8826531883338111,None,0,0,0,2,0,5,5,12,,,65.50424361999904,66.50465060000715,66.48773409999558,None,3.571614583333333,1.544558399997186,66.48773409999558,None,,,,,,,hola,001,2020_Dec_15_1342,piloto1,2020.2.5,59.989333895528695,
1000,0.02,imagenes/Galletas-festival.jpg,0.11306074364032936,None,0,0,0,2,0,6,6,7,,,67.10397158000269,68.10418989999744,68.10418989999744,None,3.571614583333333,1.5284404999983963,68.10418989999744,None,,,,,,,hola,001,2020_Dec_15_1342,piloto1,2020.2.5,59.989333895528695,
1000,0.02,imagenes/Papas picantes.jpg,0.524978898672612,None,0,0,0,2,0,7,7,27,,,68.65406356000167,69.65393299999414,69.65393299999414,None,3.571614583333333,1.5395387000025949,69.65393299999414,None,,,,,,,hola,001,2020_Dec_15_1342,piloto1,2020.2.5,59.989333895528695,
1000,0.02,imagenes/Rosquitas (1).jpg,0.024090340010977873,None,0,0,0,2,0,8,8,17,,,70.25390628000896,None,71.23715289999382,None,3.571614583333333,1.451433000009274,71.23715289999382,None,,,,,,,hola,001,2020_Dec_15_1342,piloto1,2020.2.5,59.989333895528695,
1000,0.02,imagenes/Croissant.jpg,0.5824748589948932,None,0,0,0,2,0,9,9,5,,,71.75371177999769,None,72.73732119999477,None,3.571614583333333,1.5146099999983562,72.73732119999477,None,,,,,,,hola,001,2020_Dec_15_1342,piloto1,2020.2.5,59.989333895528695,
1000,0.02,imagenes/Leche-de-almendras.jpg,0.3886559457994673,None,0,0,0,2,0,10,10,9,,,73.42013644000109,None,74.40360020000662,None,3.571614583333333,1.6298887000011746,74.40360020000662,None,,,,,,,hola,001,2020_Dec_15_1342,piloto1,2020.2.5,59.989333895528695,
1000,0.02,imagenes/Pizza.png,0.21192443516553439,None,0,0,0,2,0,11,11,31,,,75.08689082000348,None,76.0729668999993,None,3.571614583333333,1.6717786000081105,76.0729668999993,None,,,,,,,hola,001,2020_Dec_15_1342,piloto1,2020.2.5,59.989333895528695,
1000,0.02,imagenes/Papas-naturales.jpg,0.37590629905521566,None,0,0,0,2,0,12,12,13,,,76.78701332000202,77.78687219999847,77.78687219999847,None,3.571614583333333,1.671206599989091,77.78687219999847,None,,,,,,,hola,001,2020_Dec_15_1342,piloto1,2020.2.5,59.989333895528695,
1000,0.02,imagenes/Coliflor.jpg,0.3640740491088985,None,0,0,0,2,0,13,13,24,,,78.48679446000315,79.48670979999588,79.48670979999588,None,3.571614583333333,1.23923890000151,79.48670979999588,None,,,,,,,hola,001,2020_Dec_15_1342,piloto1,2020.2.5,59.989333895528695,
1000,0.02,imagenes/Mango.jpeg,0.4341155418941499,None,0,0,0,2,0,14,14,10,,,79.77003922000296,80.77035360000446,80.77035360000446,None,3.571614583333333,1.7933994000050006,80.77035360000446,None,,,,,,,hola,001,2020_Dec_15_1342,piloto1,2020.2.5,59.989333895528695,
1000,0.02,imagenes/Pescadito.png,0.7172825011486081,None,0,0,0,2,0,15,15,29,,,81.63661684000691,None,82.62018420000095,None,3.571614583333333,1.6048945000075037,82.62018420000095,None,,,,,,,hola,001,2020_Dec_15_1342,piloto1,2020.2.5,59.989333895528695,
1000,0.02,imagenes/Uvas.jpg,0.4959291644143431,None,0,0,0,2,0,16,16,19,,,83.28672468000441,84.28676180000184,84.27056119999907,None,3.571614583333333,1.7319495999981882,84.27056119999907,None,,,,,,,hola,001,2020_Dec_15_1342,piloto1,2020.2.5,59.989333895528695,
1000,0.02,imagenes/Alpinito.jpg,0.7416150880621702,None,0,0,0,2,0,17,17,0,,,85.08647823999637,86.08672900000238,86.08672900000238,None,3.571614583333333,1.8069969000061974,86.08672900000238,None,,,,,,,hola,001,2020_Dec_15_1342,piloto1,2020.2.5,59.989333895528695,
1000,0.02,imagenes/Popetas.jpg,0.9621625733302204,None,0,0,0,2,0,18,18,16,,,86.95278608000372,87.95339130000502,87.93691750000289,None,3.571614583333333,1.7299667000042973,87.93691750000289,None,,,,,,,hola,001,2020_Dec_15_1342,piloto1,2020.2.5,59.989333895528695,
1000,0.02,imagenes/Banano.jpeg,0.2267656716538785,None,0,0,0,2,0,19,19,1,,,88.73653717999987,None,89.7198561999976,None,3.571614583333333,1.381318600004306,89.7198561999976,None,,,,,,,hola,001,2020_Dec_15_1342,piloto1,2020.2.5,59.989333895528695,
1000,0.02,imagenes/Rollo de queso.png,0.9201641182756888,None,0,0,0,2,0,20,20,33,,,90.18635424000387,91.18685179999738,91.18685179999738,None,3.571614583333333,1.5072972000052687,91.18685179999738,None,,,,,,,hola,001,2020_Dec_15_1342,piloto1,2020.2.5,59.989333895528695,
1000,0.02,imagenes/pistachos.jpg,0.7450869742741464,None,0,0,0,2,0,21,21,30,,,91.71963166000788,None,92.71971220000705,None,3.571614583333333,1.3921857999957865,92.71971220000705,None,,,,,,,hola,001,2020_Dec_15_1342,piloto1,2020.2.5,59.989333895528695,
1000,0.02,imagenes/Brocoli.jpg,0.24293074945529525,None,0,0,0,2,0,22,22,21,,,93.15294582000644,None,94.13620579999406,None,3.571614583333333,1.6795779999956721,94.13620579999406,None,,,,,,,hola,001,2020_Dec_15_1342,piloto1,2020.2.5,59.989333895528695,
1000,0.02,imagenes/Rollos de canela.png,0.2610974409574519,None,0,0,0,2,0,23,23,34,,,94.85258936000756,95.85288210000726,95.85288210000726,None,3.571614583333333,1.692486400002963,95.85288210000726,None,,,,,,,hola,001,2020_Dec_15_1342,piloto1,2020.2.5,59.989333895528695,
1000,0.02,imagenes/Canelazo.png,0.6730479360767814,None,0,0,0,2,0,24,24,22,,,96.652506860008,97.66438489999564,97.66438489999564,None,3.571614583333333,1.8894590999989305,97.66438489999564,None,,,,,,,hola,001,2020_Dec_15_1342,piloto1,2020.2.5,59.989333895528695,
1000,0.02,imagenes/Yogurt-alpina.jpg,0.5445152936222175,None,0,0,0,2,0,25,25,18,,,98.58778682000121,99.5876619000046,99.5876619000046,None,3.571614583333333,2.1589969000051497,99.5876619000046,None,,,,,,,hola,001,2020_Dec_15_1342,piloto1,2020.2.5,59.989333895528695,
1000,0.02,imagenes/Pizzetas.png,0.3295951589873042,None,0,0,0,2,0,26,26,32,,,100.82316824000155,None,101.80364660000487,None,3.571614583333333,1.7193229999975301,101.80364660000487,None,,,,,,,hola,001,2020_Dec_15_1342,piloto1,2020.2.5,59.989333895528695,
1000,0.02,imagenes/Kiwi.jpg,0.3929145850942286,None,0,0,0,2,0,27,27,8,,,102.57239392000776,None,103.556531299997,None,3.571614583333333,1.5118935000064084,103.556531299997,None,,,,,,,hola,001,2020_Dec_15_1342,piloto1,2020.2.5,59.989333895528695,
1000,0.02,imagenes/salchicha hojaldrada.jpg,0.7119773165481526,None,0,0,0,2,0,28,28,35,,,104.10229135999398,None,105.10246239999833,None,3.571614583333333,1.6946193000039784,105.10246239999833,None,,,,,,,hola,001,2020_Dec_15_1342,piloto1,2020.2.5,59.989333895528695,
1000,0.02,imagenes/Galletas Tosh.jpg,0.9129693753280027,None,0,0,0,2,0,29,29,6,,,105.86883804000682,None,106.8694428000017,None,3.571614583333333,1.977411799991387,106.8694428000017,None,,,,,,,hola,001,2020_Dec_15_1342,piloto1,2020.2.5,59.989333895528695,
1000,0.02,imagenes/Brownie.jpg,0.2838924074864093,None,0,0,0,2,0,30,30,3,,,107.9520265600062,108.95234360000177,108.93557770000189,None,3.571614583333333,1.6625179999973625,108.93557770000189,None,,,,,,,hola,001,2020_Dec_15_1342,piloto1,2020.2.5,59.989333895528695,
1000,0.02,imagenes/Pandebono.png,0.8988574378129985,None,0,0,0,2,0,31,31,26,,,109.65191932000454,110.65228700000443,110.65228700000443,None,3.571614583333333,1.828707000007853,110.65228700000443,None,,,,,,,hola,001,2020_Dec_15_1342,piloto1,2020.2.5,59.989333895528695,
1000,0.02,imagenes/Pepinillos.png,0.0038966441241518046,None,0,0,0,2,0,32,32,28,,,111.60186392000179,112.60212189999584,112.5858475999994,None,3.571614583333333,1.8196220999961952,112.5858475999994,None,,,,,,,hola,001,2020_Dec_15_1342,piloto1,2020.2.5,59.989333895528695,
1000,0.02,imagenes/Chontaduro.png,0.8693553300418813,None,0,0,0,2,0,33,33,23,,,113.46863108000544,None,114.45194899999478,None,3.571614583333333,1.9371480000118027,114.45194899999478,None,,,,,,,hola,001,2020_Dec_15_1342,piloto1,2020.2.5,59.989333895528695,
1000,0.02,imagenes/Manzana.jpg,0.4048420327008191,None,0,0,0,2,0,34,34,11,,,115.51836172000623,None,116.50249680000707,None,3.571614583333333,1.77070090000052,116.50249680000707,None,,,,,,,hola,001,2020_Dec_15_1342,piloto1,2020.2.5,59.989333895528695,
1000,0.02,imagenes/Papas-pollo.jpg,0.08373485417902837,None,0,0,0,2,0,35,35,15,,,117.31855202000298,None,118.31857930000115,None,3.4544270833333335,1.7071799999976065,118.31857930000115,None,,,,,,,hola,001,2020_Dec_15_1342,piloto1,2020.2.5,59.989333895528695,
1000,0.02,,,,0,0,0,2,,,,,,,,,,,,,,,,,,,,,hola,001,2020_Dec_15_1342,piloto1,2020.2.5,59.989333895528695,
1500,0.02,imagenes/Leche-de-almendras.jpg,0.3886559457994673,None,0,1,1,1,0,0,0,9,,,119.18464374000324,None,120.1684011000034,None,3.4544270833333335,1.6501215000025695,120.1684011000034,None,,,,,,,hola,001,2020_Dec_15_1342,piloto1,2020.2.5,59.989333895528695,
1500,0.02,imagenes/Brocoli.jpg,0.24293074945529525,None,0,1,1,1,0,1,1,21,,,120.86838702000097,None,121.86845860000176,None,3.4544270833333335,1.5616893999977037,121.86845860000176,None,,,,,,,hola,001,2020_Dec_15_1342,piloto1,2020.2.5,59.989333895528695,
1500,0.02,imagenes/Chocoramo.jfif.jpg,0.7425528559884101,None,0,1,1,1,0,2,2,4,,,122.51824649999617,None,123.50288270000601,None,None,None,123.50288270000601,None,,,,,,,hola,001,2020_Dec_15_1342,piloto1,2020.2.5,59.989333895528695,
1500,0.02,imagenes/Rollos de canela.png,0.2610974409574519,None,0,1,1,1,0,3,3,34,,,125.5513190800004,None,126.55153070000233,125.5526816000056,3.4544270833333335,1.3262768999993568,126.55153070000233,125.5526816000056,,,,,,,hola,001,2020_Dec_15_1342,piloto1,2020.2.5,59.989333895528695,
1500,0.02,imagenes/Galletas Tosh.jpg,0.9129693753280027,None,0,1,1,1,0,4,4,6,,,126.95126714000945,127.9514724000037,127.9514724000037,None,3.4544270833333335,1.7073226000065915,127.9514724000037,None,,,,,,,hola,001,2020_Dec_15_1342,piloto1,2020.2.5,59.989333895528695,
1500,0.02,imagenes/Nutella (1).jpg,0.8826531883338111,None,0,1,1,1,0,5,5,12,,,128.7013462199946,None,129.70129110000562,None,3.4544270833333335,1.5057323000073666,129.70129110000562,None,,,,,,,hola,001,2020_Dec_15_1342,piloto1,2020.2.5,59.989333895528695,
1500,0.02,imagenes/Mango.jpeg,0.4341155418941499,None,0,1,1,1,0,6,6,10,,,130.26786917999854,131.26820629999565,131.26820629999565,None,3.4544270833333335,1.6421334000042407,131.26820629999565,None,,,,,,,hola,001,2020_Dec_15_1342,piloto1,2020.2.5,59.989333895528695,
1500,0.02,imagenes/Pizzetas.png,0.3295951589873042,None,0,1,1,1,0,7,7,32,,,131.98440044000162,132.9845398000034,132.97112180000113,None,3.4544270833333335,1.780975200003013,132.97112180000113,None,,,,,,,hola,001,2020_Dec_15_1342,piloto1,2020.2.5,59.989333895528695,
1500,0.02,imagenes/Rollo de queso.png,0.9201641182756888,None,0,1,1,1,0,8,8,33,,,133.8509311000089,None,134.83421099999396,None,3.4544270833333335,1.4998328000074252,134.83421099999396,None,,,,,,,hola,001,2020_Dec_15_1342,piloto1,2020.2.5,59.989333895528695,
1500,0.02,imagenes/Pandebono.png,0.8988574378129985,None,0,1,1,1,0,9,9,26,,,135.4507497600047,None,136.45072550000623,None,3.4544270833333335,1.2459602000017185,136.45072550000623,None,,,,,,,hola,001,2020_Dec_15_1342,piloto1,2020.2.5,59.989333895528695,
1500,0.02,imagenes/Pizza.png,0.21192443516553439,None,0,1,1,1,0,10,10,31,,,136.7508622799971,None,137.73456820000138,None,3.4544270833333335,1.7670813000004273,137.73456820000138,None,,,,,,,hola,001,2020_Dec_15_1342,piloto1,2020.2.5,59.989333895528695,
1500,0.02,imagenes/Alpinito.jpg,0.7416150880621702,None,0,1,1,1,0,11,11,0,,,138.61736825999688,139.6175457000063,139.6175457000063,None,3.4544270833333335,1.6723744999908376,139.6175457000063,None,,,,,,,hola,001,2020_Dec_15_1342,piloto1,2020.2.5,59.989333895528695,
1500,0.02,imagenes/Yogurt-alpina.jpg,0.5445152936222175,None,0,1,1,1,0,12,12,18,,,140.35060327999528,141.3507924000005,141.33426620000682,None,3.4544270833333335,1.663467500009574,141.33426620000682,None,,,,,,,hola,001,2020_Dec_15_1342,piloto1,2020.2.5,59.989333895528695,
1500,0.02,imagenes/Almojabanas.png,0.6725051200713246,None,0,1,1,1,0,13,13,20,,,142.08424304000218,143.08400780000375,143.08400780000375,None,3.4544270833333335,2.589837899999111,143.08400780000375,None,,,,,,,hola,001,2020_Dec_15_1342,piloto1,2020.2.5,59.989333895528695,
1500,0.02,imagenes/Papas picantes.jpg,0.524978898672612,None,0,1,1,1,0,14,14,27,,,144.70056406000222,145.70054130000062,145.70054130000062,None,3.4544270833333335,1.9729979999974603,145.70054130000062,None,,,,,,,hola,001,2020_Dec_15_1342,piloto1,2020.2.5,59.989333895528695,
1500,0.02,imagenes/Papas-naturales.jpg,0.37590629905521566,None,0,1,1,1,0,15,15,13,,,146.7337603799999,None,147.70067190000555,None,3.4544270833333335,1.8543296999996528,147.70067190000555,None,,,,,,,hola,001,2020_Dec_15_1342,piloto1,2020.2.5,59.989333895528695,
1500,0.02,imagenes/Rosquitas (1).jpg,0.024090340010977873,None,0,1,1,1,0,16,16,17,,,148.65019284000445,149.65037479999592,149.65037479999592,None,3.4544270833333335,1.2064409000013256,149.65037479999592,None,,,,,,,hola,001,2020_Dec_15_1342,piloto1,2020.2.5,59.989333895528695,
1500,0.02,imagenes/Chontaduro.png,0.8693553300418813,None,0,1,1,1,0,17,17,23,,,149.90026141999698,None,150.90064180000627,None,3.4544270833333335,2.2057095000054687,150.90064180000627,None,,,,,,,hola,001,2020_Dec_15_1342,piloto1,2020.2.5,59.989333895528695,
1500,0.02,imagenes/bon-bon-bun.jpg,0.7417452724056987,None,0,1,1,1,0,18,18,2,,,152.2000193999993,153.20016439999745,153.20016439999745,None,3.4544270833333335,1.8905654000118375,153.20016439999745,None,,,,,,,hola,001,2020_Dec_15_1342,piloto1,2020.2.5,59.989333895528695,
1500,0.02,imagenes/Canelazo.png,0.6730479360767814,None,0,1,1,1,0,19,19,22,,,154.23312387999906,None,155.21681830000307,None,3.4544270833333335,1.2542035999940708,155.21681830000307,None,,,,,,,hola,001,2020_Dec_15_1342,piloto1,2020.2.5,59.989333895528695,
1500,0.02,imagenes/Muffin de banano.png,0.9610615059009696,None,0,1,1,1,0,20,20,25,,,155.56630390000646,None,156.56664459999593,None,3.4544270833333335,2.627511599988793,156.56664459999593,None,,,,,,,hola,001,2020_Dec_15_1342,piloto1,2020.2.5,59.989333895528695,
1500,0.02,imagenes/Banano.jpeg,0.2267656716538785,None,0,1,1,1,0,21,21,1,,,158.23290682000226,159.23315359999833,159.21647450000455,None,3.4544270833333335,1.2492514999903506,159.21647450000455,None,,,,,,,hola,001,2020_Dec_15_1342,piloto1,2020.2.5,59.989333895528695,
1500,0.02,imagenes/Papas-limon.jpg,0.5280798509093595,None,0,1,1,1,0,22,22,14,,,159.51644551999635,160.51660630000697,160.51660630000697,None,3.4544270833333335,2.124475499993423,160.51660630000697,None,,,,,,,hola,001,2020_Dec_15_1342,piloto1,2020.2.5,59.989333895528695,
1500,0.02,imagenes/Popetas.jpg,0.9621625733302204,None,0,1,1,1,0,23,23,16,,,161.7328858999972,162.73279589999584,162.73279589999584,None,3.4544270833333335,2.0031772000074852,162.73279589999584,None,,,,,,,hola,001,2020_Dec_15_1342,piloto1,2020.2.5,59.989333895528695,
1500,0.02,imagenes/Papas-pollo.jpg,0.08373485417902837,None,0,1,1,1,0,24,24,15,,,163.81595523999712,None,164.80019199999515,None,3.4544270833333335,1.434116799995536,164.80019199999515,None,,,,,,,hola,001,2020_Dec_15_1342,piloto1,2020.2.5,59.989333895528695,
1500,0.02,imagenes/salchicha hojaldrada.jpg,0.7119773165481526,None,0,1,1,1,0,25,25,35,,,165.26612685999717,166.26624330000777,166.26624330000777,None,3.4544270833333335,2.12518160000036,166.26624330000777,None,,,,,,,hola,001,2020_Dec_15_1342,piloto1,2020.2.5,59.989333895528695,
1500,0.02,imagenes/Kiwi.jpg,0.3929145850942286,None,0,1,1,1,0,26,26,8,,,167.43285342000019,168.432599199994,168.4158383000031,None,3.4544270833333335,1.8536126999970293,168.4158383000031,None,,,,,,,hola,001,2020_Dec_15_1342,piloto1,2020.2.5,59.989333895528695,
1500,0.02,imagenes/Galletas-festival.jpg,0.11306074364032936,None,0,1,1,1,0,27,27,7,,,169.34914184000226,170.34940049999568,170.3326081999985,None,3.4544270833333335,1.5502590999967651,170.3326081999985,None,,,,,,,hola,001,2020_Dec_15_1342,piloto1,2020.2.5,59.989333895528695,
1500,0.02,imagenes/Pepinillos.png,0.0038966441241518046,None,0,1,1,1,0,28,28,28,,,170.96576774000422,None,171.94957120000618,None,3.4544270833333335,1.2167898000043351,171.94957120000618,None,,,,,,,hola,001,2020_Dec_15_1342,piloto1,2020.2.5,59.989333895528695,
1500,0.02,imagenes/pistachos.jpg,0.7450869742741464,None,0,1,1,1,0,29,29,30,,,172.19918886000815,173.19944039999973,173.19944039999973,None,3.4544270833333335,2.1925406999944244,173.19944039999973,None,,,,,,,hola,001,2020_Dec_15_1342,piloto1,2020.2.5,59.989333895528695,
1500,0.02,imagenes/Brownie.jpg,0.2838924074864093,None,0,1,1,1,0,30,30,3,,,174.49919726000226,175.4992454000021,175.4992454000021,None,3.4544270833333335,1.6929091999918455,175.4992454000021,None,,,,,,,hola,001,2020_Dec_15_1342,piloto1,2020.2.5,59.989333895528695,
1500,0.02,imagenes/Coliflor.jpg,0.3640740491088985,None,0,1,1,1,0,31,31,24,,,176.24904238000747,None,177.23210330000438,None,3.4544270833333335,2.254547199991066,177.23210330000438,None,,,,,,,hola,001,2020_Dec_15_1342,piloto1,2020.2.5,59.989333895528695,
1500,0.02,imagenes/Croissant.jpg,0.5824748589948932,None,0,1,1,1,0,32,32,5,,,178.59905226000993,None,179.58302960000583,None,3.4544270833333335,2.30075469998701,179.58302960000583,None,,,,,,,hola,001,2020_Dec_15_1342,piloto1,2020.2.5,59.989333895528695,
1500,0.02,imagenes/Uvas.jpg,0.4959291644143431,None,0,1,1,1,0,33,33,19,,,180.94902528000532,None,181.9332221999939,None,3.4544270833333335,1.9675672000012128,181.9332221999939,None,,,,,,,hola,001,2020_Dec_15_1342,piloto1,2020.2.5,59.989333895528695,
1500,0.02,imagenes/Manzana.jpg,0.4048420327008191,None,0,1,1,1,0,34,34,11,,,182.98180364000436,183.98190139999497,183.98190139999497,None,3.4544270833333335,1.8426276999962283,183.98190139999497,None,,,,,,,hola,001,2020_Dec_15_1342,piloto1,2020.2.5,59.989333895528695,
1500,0.02,imagenes/Pescadito.png,0.7172825011486081,None,0,1,1,1,0,35,35,29,,,184.8983758400078,None,185.86544290000165,None,3.4544270833333335,1.8378159999992931,185.86544290000165,None,,,,,,,hola,001,2020_Dec_15_1342,piloto1,2020.2.5,59.989333895528695,
1500,0.02,,,,0,1,1,1,,,,,,,,,,,,,,,,,,,,,hola,001,2020_Dec_15_1342,piloto1,2020.2.5,59.989333895528695,
400,0.02,imagenes/Papas picantes.jpg,0.524978898672612,None,0,2,2,0,0,0,0,27,,,186.78181678000257,187.7817789999972,187.7817789999972,None,3.4544270833333335,2.0739516000030562,187.7817789999972,None,,,,,,,hola,001,2020_Dec_15_1342,piloto1,2020.2.5,59.989333895528695,
400,0.02,imagenes/Popetas.jpg,0.9621625733302204,None,0,2,2,0,0,1,1,16,,,188.96518266000786,189.96500430000015,189.96500430000015,None,3.4544270833333335,1.709357400002773,189.96500430000015,None,,,,,,,hola,001,2020_Dec_15_1342,piloto1,2020.2.5,59.989333895528695,
400,0.02,imagenes/Rosquitas (1).jpg,0.024090340010977873,None,0,2,2,0,0,2,2,17,,,190.73147158000504,191.7317127999995,191.7317127999995,None,3.4544270833333335,1.6396594999969238,191.7317127999995,None,,,,,,,hola,001,2020_Dec_15_1342,piloto1,2020.2.5,59.989333895528695,
400,0.02,imagenes/Leche-de-almendras.jpg,0.3886559457994673,None,0,2,2,0,0,3,3,9,,,192.5478135000012,193.54861589999928,193.54861589999928,None,3.4544270833333335,1.8597563000075752,193.54861589999928,None,,,,,,,hola,001,2020_Dec_15_1342,piloto1,2020.2.5,59.989333895528695,
400,0.02,imagenes/Pizzetas.png,0.3295951589873042,None,0,2,2,0,0,4,4,32,,,194.48137663999805,None,195.46493269999337,None,None,None,195.46493269999337,None,,,,,,,hola,001,2020_Dec_15_1342,piloto1,2020.2.5,59.989333895528695,
400,0.02,imagenes/Uvas.jpg,0.4959291644143431,None,0,2,2,0,0,5,5,19,,,197.49785948000792,198.4983052000025,198.48132279999845,197.491328300006,3.51953125,1.4683188000053633,198.48132279999845,197.491328300006,,,,,,,hola,001,2020_Dec_15_1342,piloto1,2020.2.5,59.989333895528695,
400,0.02,imagenes/Galletas Tosh.jpg,0.9129693753280027,None,0,2,2,0,0,6,6,6,,,199.03165444000624,200.03136340000492,200.03136340000492,None,3.51953125,1.507802599997376,200.03136340000492,None,,,,,,,hola,001,2020_Dec_15_1342,piloto1,2020.2.5,59.989333895528695,
400,0.02,imagenes/Rollo de queso.png,0.9201641182756888,None,0,2,2,0,0,7,7,33,,,200.63145270000678,None,201.61445059999824,None,3.51953125,1.6330281999980798,201.61445059999824,None,,,,,,,hola,001,2020_Dec_15_1342,piloto1,2020.2.5,59.989333895528695,
400,0.02,imagenes/Alpinito.jpg,0.7416150880621702,None,0,2,2,0,0,8,8,0,,,202.36415876000538,None,203.34808229999908,None,3.51953125,1.619154999993043,203.34808229999908,None,,,,,,,hola,001,2020_Dec_15_1342,piloto1,2020.2.5,59.989333895528695,
400,0.02,imagenes/Banano.jpeg,0.2267656716538785,None,0,2,2,0,0,9,9,1,,,204.03091078000145,205.0312369000021,205.0146844999981,None,3.51953125,1.5146220000024186,205.0146844999981,None,,,,,,,hola,001,2020_Dec_15_1342,piloto1,2020.2.5,59.989333895528695,
400,0.02,imagenes/Pepinillos.png,0.0038966441241518046,None,0,2,2,0,0,10,10,28,,,205.61419083999644,206.61442850000458,206.61442850000458,None,3.421875,1.4063375999976415,206.61442850000458,None,,,,,,,hola,001,2020_Dec_15_1342,piloto1,2020.2.5,59.989333895528695,
400,0.02,imagenes/Rollos de canela.png,0.2610974409574519,None,0,2,2,0,0,11,11,34,,,207.08121367999703,None,208.0809348000039,None,3.51953125,1.8235343000123976,208.0809348000039,None,,,,,,,hola,001,2020_Dec_15_1342,piloto1,2020.2.5,59.989333895528695,
400,0.02,imagenes/Canelazo.png,0.6730479360767814,None,0,2,2,0,0,12,12,22,,,209.01391896000715,None,209.99738179999986,None,3.51953125,1.5354101999982959,209.99738179999986,None,,,,,,,hola,001,2020_Dec_15_1342,piloto1,2020.2.5,59.989333895528695,
400,0.02,imagenes/Nutella (1).jpg,0.8826531883338111,None,0,2,2,0,0,13,13,12,,,210.5806984199997,211.5808745999966,211.5808745999966,None,3.51953125,1.7226952000055462,211.5808745999966,None,,,,,,,hola,001,2020_Dec_15_1342,piloto1,2020.2.5,59.989333895528695,
400,0.02,imagenes/pistachos.jpg,0.7450869742741464,None,0,2,2,0,0,14,14,30,,,212.33066825999995,213.33065089999582,213.33065089999582,None,3.545572916666667,1.8256154999980936,213.33065089999582,None,,,,,,,hola,001,2020_Dec_15_1342,piloto1,2020.2.5,59.989333895528695,
400,0.02,imagenes/Papas-naturales.jpg,0.37590629905521566,None,0,2,2,0,0,15,15,13,,,214.1971291199996,215.19738090000465,215.19738090000465,None,3.545572916666667,1.7724949999974342,215.19738090000465,None,,,,,,,hola,001,2020_Dec_15_1342,piloto1,2020.2.5,59.989333895528695,
400,0.02,imagenes/Coliflor.jpg,0.3640740491088985,None,0,2,2,0,0,16,16,24,,,216.03038988000773,None,217.0138309000031,None,3.545572916666667,1.7542564000032144,217.0138309000031,None,,,,,,,hola,001,2020_Dec_15_1342,piloto1,2020.2.5,59.989333895528695,
400,0.02,imagenes/Kiwi.jpg,0.3929145850942286,None,0,2,2,0,0,17,17,8,,,217.81376781999717,218.81355960000656,218.79695980000542,None,3.545572916666667,2.3320202000031713,218.79695980000542,None,,,,,,,hola,001,2020_Dec_15_1342,piloto1,2020.2.5,59.989333895528695,
400,0.02,imagenes/Muffin de banano.png,0.9610615059009696,None,0,2,2,0,0,18,18,25,,,220.26347272000277,221.26359070000763,221.24692419999337,None,None,None,221.24692419999337,None,,,,,,,hola,001,2020_Dec_15_1342,piloto1,2020.2.5,59.989333895528695,
400,0.02,imagenes/Pizza.png,0.21192443516553439,None,0,2,2,0,0,19,19,31,,,223.28016208000483,224.2802706000075,224.2802706000075,223.27867480000714,3.513020833333333,1.6118434000090929,224.2802706000075,223.27867480000714,,,,,,,hola,001,2020_Dec_15_1342,piloto1,2020.2.5,59.989333895528695,
400,0.02,imagenes/Brownie.jpg,0.2838924074864093,None,0,2,2,0,0,20,20,3,,,224.99648526000092,None,225.97991860000184,None,3.513020833333333,1.7467871000117157,225.97991860000184,None,,,,,,,hola,001,2020_Dec_15_1342,piloto1,2020.2.5,59.989333895528695,
400,0.02,imagenes/Papas-pollo.jpg,0.08373485417902837,None,0,2,2,0,0,21,21,15,,,226.78002411999915,None,227.7638663999969,None,3.513020833333333,1.9324287000054028,227.7638663999969,None,,,,,,,hola,001,2020_Dec_15_1342,piloto1,2020.2.5,59.989333895528695,
400,0.02,imagenes/Chontaduro.png,0.8693553300418813,None,0,2,2,0,0,22,22,23,,,228.76319257999714,229.7632072999986,229.7300294000015,None,3.513020833333333,1.9381749000021955,229.7300294000015,None,,,,,,,hola,001,2020_Dec_15_1342,piloto1,2020.2.5,59.989333895528695,
400,0.02,imagenes/Brocoli.jpg,0.24293074945529525,None,0,2,2,0,0,23,23,21,,,230.7299423199991,None,231.7134478999942,None,3.513020833333333,2.217289400010486,231.7134478999942,None,,,,,,,hola,001,2020_Dec_15_1342,piloto1,2020.2.5,59.989333895528695,
400,0.02,imagenes/Manzana.jpg,0.4048420327008191,None,0,2,2,0,0,24,24,11,,,232.97933502000234,233.97928240000329,233.97928240000329,None,3.513020833333333,1.6432711000088602,233.97928240000329,None,,,,,,,hola,001,2020_Dec_15_1342,piloto1,2020.2.5,59.989333895528695,
400,0.02,imagenes/salchicha hojaldrada.jpg,0.7119773165481526,None,0,2,2,0,0,25,25,35,,,234.64639735999518,235.6459804000042,235.6459804000042,None,3.513020833333333,2.4075774000084493,235.6459804000042,None,,,,,,,hola,001,2020_Dec_15_1342,piloto1,2020.2.5,59.989333895528695,
400,0.02,imagenes/Croissant.jpg,0.5824748589948932,None,0,2,2,0,0,26,26,5,,,237.145852200003,None,238.12944160000188,None,3.513020833333333,1.9191181999922264,238.12944160000188,None,,,,,,,hola,001,2020_Dec_15_1342,piloto1,2020.2.5,59.989333895528695,
400,0.02,imagenes/Mango.jpeg,0.4341155418941499,None,0,2,2,0,0,27,27,10,,,239.12917953999712,None,240.11274719999346,None,3.513020833333333,2.63119669999287,240.11274719999346,None,,,,,,,hola,001,2020_Dec_15_1342,piloto1,2020.2.5,59.989333895528695,
400,0.02,imagenes/bon-bon-bun.jpg,0.7417452724056987,None,0,2,2,0,0,28,28,2,,,241.84573139999702,None,242.82917250000173,None,3.513020833333333,1.7707886999996845,242.82917250000173,None,,,,,,,hola,001,2020_Dec_15_1342,piloto1,2020.2.5,59.989333895528695,
400,0.02,imagenes/Papas-limon.jpg,0.5280798509093595,None,0,2,2,0,0,29,29,14,,,243.66235647999858,None,244.62931600000593,None,3.513020833333333,2.6890147000085562,244.62931600000593,None,,,,,,,hola,001,2020_Dec_15_1342,piloto1,2020.2.5,59.989333895528695,
400,0.02,imagenes/Pandebono.png,0.8988574378129985,None,0,2,2,0,0,30,30,26,,,246.41243374000769,None,247.37912500000675,None,3.513020833333333,1.7707369999989169,247.37912500000675,None,,,,,,,hola,001,2020_Dec_15_1342,piloto1,2020.2.5,59.989333895528695,
400,0.02,imagenes/Galletas-festival.jpg,0.11306074364032936,None,0,2,2,0,0,31,31,7,,,248.22930828000537,249.2290054000041,249.2290054000041,None,3.506510416666667,2.0395082000031834,249.2290054000041,None,,,,,,,hola,001,2020_Dec_15_1342,piloto1,2020.2.5,59.989333895528695,
400,0.02,imagenes/Almojabanas.png,0.6725051200713246,None,0,2,2,0,0,32,32,20,,,250.36213580000913,251.36229750000348,251.36229750000348,None,3.506510416666667,1.595277200001874,251.36229750000348,None,,,,,,,hola,001,2020_Dec_15_1342,piloto1,2020.2.5,59.989333895528695,
400,0.02,imagenes/Pescadito.png,0.7172825011486081,None,0,2,2,0,0,33,33,29,,,252.0119035800046,None,252.9954185999959,None,3.506510416666667,1.5052814000082435,252.9954185999959,None,,,,,,,hola,001,2020_Dec_15_1342,piloto1,2020.2.5,59.989333895528695,
400,0.02,imagenes/Chocoramo.jfif.jpg,0.7425528559884101,None,0,2,2,0,0,34,34,4,,,253.57838764000334,None,254.5786286000075,None,3.916666666666667,1.862204599994584,254.5786286000075,None,,,,,,,hola,001,2020_Dec_15_1342,piloto1,2020.2.5,59.989333895528695,
400,0.02,imagenes/Yogurt-alpina.jpg,0.5445152936222175,None,0,2,2,0,0,35,35,18,,,255.49549668000256,256.4952526999987,256.47859840000456,None,3.34375,1.3662322999880416,256.47859840000456,None,,,,,,,hola,001,2020_Dec_15_1342,piloto1,2020.2.5,59.989333895528695,
400,0.02,,,,0,2,2,0,,,,,,,,,,,,,,,,,,,,,hola,001,2020_Dec_15_1342,piloto1,2020.2.5,59.989333895528695,
1000,0.0,imagenes/Alpinito.jpg,0.7416150880621702,None,0,3,3,3,0,0,0,0,,,256.99482758000084,None,257.9783873999986,None,3.0703125,1.480850100007956,257.9783873999986,None,,,,,,,hola,001,2020_Dec_15_1342,piloto1,2020.2.5,59.989333895528695,
1000,0.0,imagenes/Almojabanas.png,0.6725051200713246,None,0,3,3,3,0,1,1,20,,,258.5785816600022,None,259.56175199999416,None,3.63671875,1.7854080999968573,259.56175199999416,None,,,,,,,hola,001,2020_Dec_15_1342,piloto1,2020.2.5,59.989333895528695,
1000,0.0,imagenes/Muffin de banano.png,0.9610615059009696,None,0,3,3,3,0,2,2,25,,,260.4282248400064,None,261.4283824000013,None,4.196614583333333,1.490391900006216,261.4283824000013,None,,,,,,,hola,001,2020_Dec_15_1342,piloto1,2020.2.5,59.989333895528695,
1000,0.0,imagenes/Nutella (1).jpg,0.8826531883338111,None,0,3,3,3,0,3,3,12,,,261.9783875800087,None,262.9656088000047,None,3.708333333333333,1.47145399999863,262.9656088000047,None,,,,,,,hola,001,2020_Dec_15_1342,piloto1,2020.2.5,59.989333895528695,
1000,0.0,imagenes/Banano.jpeg,0.2267656716538785,None,0,3,3,3,0,4,4,1,,,263.4948226800072,None,264.47819100000197,None,3.701822916666667,1.5976768999971682,264.47819100000197,None,,,,,,,hola,001,2020_Dec_15_1342,piloto1,2020.2.5,59.989333895528695,
1000,0.0,imagenes/Papas-limon.jpg,0.5280798509093595,None,0,3,3,3,0,5,5,14,,,265.1285658200038,266.128635999994,266.128635999994,None,3.513020833333333,1.5574721000011778,266.128635999994,None,,,,,,,hola,001,2020_Dec_15_1342,piloto1,2020.2.5,59.989333895528695,
1000,0.0,imagenes/Papas picantes.jpg,0.524978898672612,None,0,3,3,3,0,6,6,27,,,266.71156535999614,267.71148349999567,267.71148349999567,None,3.604166666666667,1.5225996999943163,267.71148349999567,None,,,,,,,hola,001,2020_Dec_15_1342,piloto1,2020.2.5,59.989333895528695,
1000,0.0,imagenes/Rollo de queso.png,0.9201641182756888,None,0,3,3,3,0,7,7,33,,,268.3113538400008,None,269.3113175000035,None,3.604166666666667,2.17834739999671,269.3113175000035,None,,,,,,,hola,001,2020_Dec_15_1342,piloto1,2020.2.5,59.989333895528695,
1000,0.0,imagenes/Popetas.jpg,0.9621625733302204,None,0,3,3,3,0,8,8,16,,,270.5943089600099,271.59460620000027,271.59460620000027,None,3.604166666666667,1.9101057999941986,271.59460620000027,None,,,,,,,hola,001,2020_Dec_15_1342,piloto1,2020.2.5,59.989333895528695,
1000,0.0,imagenes/Chontaduro.png,0.8693553300418813,None,0,3,3,3,0,9,9,23,,,272.5609961799957,None,273.5444248999993,None,3.604166666666667,1.9168893000023672,273.5444248999993,None,,,,,,,hola,001,2020_Dec_15_1342,piloto1,2020.2.5,59.989333895528695,
1000,0.0,imagenes/Pizza.png,0.21192443516553439,None,0,3,3,3,0,10,10,31,,,274.51092702000165,275.5110887000046,275.494286000001,None,3.604166666666667,2.0646269999997457,275.494286000001,None,,,,,,,hola,001,2020_Dec_15_1342,piloto1,2020.2.5,59.989333895528695,
1000,0.0,imagenes/Croissant.jpg,0.5824748589948932,None,0,3,3,3,0,11,11,5,,,276.6943466199998,277.69455420000304,277.67759540000407,None,3.604166666666667,1.9970801000017673,277.67759540000407,None,,,,,,,hola,001,2020_Dec_15_1342,piloto1,2020.2.5,59.989333895528695,
1000,0.0,imagenes/Brocoli.jpg,0.24293074945529525,None,0,3,3,3,0,12,12,21,,,278.7275730200024,None,279.712612000003,None,3.604166666666667,1.8509635999944294,279.712612000003,None,,,,,,,hola,001,2020_Dec_15_1342,piloto1,2020.2.5,59.989333895528695,
1000,0.0,imagenes/Pescadito.png,0.7172825011486081,None,0,3,3,3,0,13,13,29,,,280.6103667200048,281.61090780000086,281.61090780000086,None,None,None,281.61090780000086,None,,,,,,,hola,001,2020_Dec_15_1342,piloto1,2020.2.5,59.989333895528695,
1000,0.0,imagenes/Coliflor.jpg,0.3640740491088985,None,0,3,3,3,0,14,14,24,,,283.64415897999714,None,284.6274026000028,283.63656159999664,3.604166666666667,1.5702159000065876,284.6274026000028,283.63656159999664,,,,,,,hola,001,2020_Dec_15_1342,piloto1,2020.2.5,59.989333895528695,
1000,0.0,imagenes/Kiwi.jpg,0.3929145850942286,None,0,3,3,3,0,15,15,8,,,285.24382652000054,None,286.2270922000025,None,3.48046875,1.9691774000093574,286.2270922000025,None,,,,,,,hola,001,2020_Dec_15_1342,piloto1,2020.2.5,59.989333895528695,
1000,0.0,imagenes/Leche-de-almendras.jpg,0.3886559457994673,None,0,3,3,3,0,16,16,9,,,287.3599470400018,None,288.34378959999594,None,3.48046875,1.6176666999963345,288.34378959999594,None,,,,,,,hola,001,2020_Dec_15_1342,piloto1,2020.2.5,59.989333895528695,
1000,0.0,imagenes/Rollos de canela.png,0.2610974409574519,None,0,3,3,3,0,17,17,34,,,289.0099314200022,290.0103010000021,290.0103010000021,None,3.48046875,1.7605799000011757,290.0103010000021,None,,,,,,,hola,001,2020_Dec_15_1342,piloto1,2020.2.5,59.989333895528695,
1000,0.0,imagenes/Pizzetas.png,0.3295951589873042,None,0,3,3,3,0,18,18,32,,,290.84345444000206,291.8435857000004,291.8435857000004,None,3.48046875,1.555005500005791,291.8435857000004,None,,,,,,,hola,001,2020_Dec_15_1342,piloto1,2020.2.5,59.989333895528695,
1000,0.0,imagenes/Yogurt-alpina.jpg,0.5445152936222175,None,0,3,3,3,0,19,19,18,,,292.46000478000786,None,293.4268429000076,None,3.48046875,1.9686701000027824,293.4268429000076,None,,,,,,,hola,001,2020_Dec_15_1342,piloto1,2020.2.5,59.989333895528695,
1000,0.0,imagenes/bon-bon-bun.jpg,0.7417452724056987,None,0,3,3,3,0,20,20,2,,,294.4597458199976,None,295.45980290000443,None,3.48046875,1.4737473999994108,295.45980290000443,None,,,,,,,hola,001,2020_Dec_15_1342,piloto1,2020.2.5,59.989333895528695,
1000,0.0,imagenes/Uvas.jpg,0.4959291644143431,None,0,3,3,3,0,21,21,19,,,295.99308868000224,296.99328819999937,296.9765499000059,None,3.48046875,2.1305351000046358,296.9765499000059,None,,,,,,,hola,001,2020_Dec_15_1342,piloto1,2020.2.5,59.989333895528695,
1000,0.0,imagenes/Rosquitas (1).jpg,0.024090340010977873,None,0,3,3,3,0,22,22,17,,,298.1931192400021,None,299.17660279999836,None,3.48046875,1.7682344999921042,299.17660279999836,None,,,,,,,hola,001,2020_Dec_15_1342,piloto1,2020.2.5,59.989333895528695,
1000,0.0,imagenes/Pepinillos.png,0.0038966441241518046,None,0,3,3,3,0,23,23,28,,,300.04303770000115,None,301.0266837999952,None,3.48046875,2.3166017000039574,301.0266837999952,None,,,,,,,hola,001,2020_Dec_15_1342,piloto1,2020.2.5,59.989333895528695,
1000,0.0,imagenes/Galletas Tosh.jpg,0.9129693753280027,None,0,3,3,3,0,24,24,6,,,302.3925824199948,303.39319879999675,303.39319879999675,None,3.48046875,1.3274179000000004,303.39319879999675,None,,,,,,,hola,001,2020_Dec_15_1342,piloto1,2020.2.5,59.989333895528695,
1000,0.0,imagenes/Manzana.jpg,0.4048420327008191,None,0,3,3,3,0,25,25,11,,,303.82649356000763,None,304.809765900005,None,3.48046875,1.6628034000023035,304.809765900005,None,,,,,,,hola,001,2020_Dec_15_1342,piloto1,2020.2.5,59.989333895528695,
1000,0.0,imagenes/Papas-pollo.jpg,0.08373485417902837,None,0,3,3,3,0,26,26,15,,,305.52609412000743,None,306.52621189999627,None,3.48046875,1.8122991999989608,306.52621189999627,None,,,,,,,hola,001,2020_Dec_15_1342,piloto1,2020.2.5,59.989333895528695,
1000,0.0,imagenes/Chocoramo.jfif.jpg,0.7425528559884101,None,0,3,3,3,0,27,27,4,,,307.4093846400006,None,308.3932894000027,None,3.48046875,2.1346925999969244,308.3932894000027,None,,,,,,,hola,001,2020_Dec_15_1342,piloto1,2020.2.5,59.989333895528695,
1000,0.0,imagenes/Mango.jpeg,0.4341155418941499,None,0,3,3,3,0,28,28,10,,,309.60922603999785,None,310.5759984000033,None,3.48046875,1.8379408000037074,310.5759984000033,None,,,,,,,hola,001,2020_Dec_15_1342,piloto1,2020.2.5,59.989333895528695,
1000,0.0,imagenes/Brownie.jpg,0.2838924074864093,None,0,3,3,3,0,29,29,3,,,311.55896252000525,None,312.54249740000523,None,3.48046875,2.118079799998668,312.54249740000523,None,,,,,,,hola,001,2020_Dec_15_1342,piloto1,2020.2.5,59.989333895528695,
1000,0.0,imagenes/Galletas-festival.jpg,0.11306074364032936,None,0,3,3,3,0,30,30,7,,,313.7088676200044,None,314.6923291999992,None,3.48046875,1.7457907999923918,314.6923291999992,None,,,,,,,hola,001,2020_Dec_15_1342,piloto1,2020.2.5,59.989333895528695,
1000,0.0,imagenes/salchicha hojaldrada.jpg,0.7119773165481526,None,0,3,3,3,0,31,31,35,,,315.4754601600056,316.4759969000006,316.45908220000274,None,3.48046875,1.8323038999951677,316.45908220000274,None,,,,,,,hola,001,2020_Dec_15_1342,piloto1,2020.2.5,59.989333895528695,
1000,0.0,imagenes/Canelazo.png,0.6730479360767814,None,0,3,3,3,0,32,32,22,,,317.4088493600051,318.4087593000004,318.4087593000004,None,None,None,318.4087593000004,None,,,,,,,hola,001,2020_Dec_15_1342,piloto1,2020.2.5,59.989333895528695,
1000,0.0,imagenes/Papas-naturales.jpg,0.37590629905521566,None,0,3,3,3,0,33,33,13,,,320.4421248800092,None,321.4086914000072,320.43248449999373,3.48046875,1.4893599999923026,321.4086914000072,320.43248449999373,,,,,,,hola,001,2020_Dec_15_1342,piloto1,2020.2.5,59.989333895528695,
1000,0.0,imagenes/Pandebono.png,0.8988574378129985,None,0,3,3,3,0,34,34,26,,,321.9755198800005,322.97532610000053,322.97532610000053,None,3.48046875,1.773795400004019,322.97532610000053,None,,,,,,,hola,001,2020_Dec_15_1342,piloto1,2020.2.5,59.989333895528695,
1000,0.0,imagenes/pistachos.jpg,0.7450869742741464,None,0,3,3,3,0,35,35,30,,,323.7755594600079,324.77519790000224,324.77519790000224,None,3.48046875,2.2244781000044895,324.77519790000224,None,,,,,,,hola,001,2020_Dec_15_1342,piloto1,2020.2.5,59.989333895528695,
1000,0.0,,,,0,3,3,3,,,,,,,,,,,,,,,,,,,,,hola,001,2020_Dec_15_1342,piloto1,2020.2.5,59.989333895528695,
,,,,,,,,,,,,,,,,,,,,,,,326.0254810000042,None,327.0258252000058,None,328.0436558000074,None,,,,,,,
