mouse_intro.x,mouse_intro.y,mouse_intro.leftButton,mouse_intro.midButton,mouse_intro.rightButton,mouse_intro.clicked_name,mouse_intro_2.x,mouse_intro_2.y,mouse_intro_2.leftButton,mouse_intro_2.midButton,mouse_intro_2.rightButton,mouse_intro_2.clicked_name,mouse_intro_prueba.x,mouse_intro_prueba.y,mouse_intro_prueba.leftButton,mouse_intro_prueba.midButton,mouse_intro_prueba.rightButton,mouse_intro_prueba.clicked_name,slider_prueba.response,slider_prueba.rt,slider_prueba_2.response,slider_prueba_2.rt,mouse_intro_exp.x,mouse_intro_exp.y,mouse_intro_exp.leftButton,mouse_intro_exp.midButton,mouse_intro_exp.rightButton,mouse_intro_exp.clicked_name,mouse_subasta1.x,mouse_subasta1.y,mouse_subasta1.leftButton,mouse_subasta1.midButton,mouse_subasta1.rightButton,mouse_subasta1.clicked_name,mouse_subasta2.x,mouse_subasta2.y,mouse_subasta2.leftButton,mouse_subasta2.midButton,mouse_subasta2.rightButton,mouse_subasta2.clicked_name,slider_exp.response,slider_exp.rt,trials_2.thisRepN,trials_2.thisTrialN,trials_2.thisN,trials_2.thisIndex,trials_2.ran,Imagenes,Random,Correcto,participant,date,expName,psychopyVersion,OS,frameRate,trials.thisRepN,trials.thisTrialN,trials.thisN,trials.thisIndex,trials.ran,Hertz,volumen,mouse_pago1_2.x,mouse_pago1_2.y,mouse_pago1_2.leftButton,mouse_pago1_2.midButton,mouse_pago1_2.rightButton,mouse_pago1.x,mouse_pago1.y,mouse_pago1.leftButton,mouse_pago1.midButton,mouse_pago1.rightButton,mouse_pago1.clicked_name,product,mouse_pago2.x,mouse_pago2.y,mouse_pago2.leftButton,mouse_pago2.midButton,mouse_pago2.rightButton,mouse_pago2.clicked_name,mouse_producto.x,mouse_producto.y,mouse_producto.leftButton,mouse_producto.midButton,mouse_producto.rightButton,mouse_producto.clicked_name,mensaje,mouse_pago3.x,mouse_pago3.y,mouse_pago3.leftButton,mouse_pago3.midButton,mouse_pago3.rightButton,mouse_pago3.clicked_name,mouse_intro_encuesta.x,mouse_intro_encuesta.y,mouse_intro_encuesta.leftButton,mouse_intro_encuesta.midButton,mouse_intro_encuesta.rightButton,mouse_intro_encuesta.clicked_name
0.684259259,-0.352777778,1,0,0,boton_intro,0.662037037,-0.377777778,1,0,0,boton_intro_2,0.734259259,-0.364814815,1,0,0,boton_intro_prueba,,,3.935185185,9.6153,0.687962963,-0.363888889,1,0,0,boton_intro_exp,0.67962963,-0.335185185,1,0,0,boton_subasta1,0.646296296,-0.352777778,1,0,0,boton_subasta2,3.99537037,8.7811,0,0,0,0,1,imagenes/Banano.jpeg,0.297138401,,pruebaprueba,2021-08-09_14h47.33.087,piloto2,2020.2.5,Win32,60,,,,,,,,,,,,,,,,,,,,,,,,,,,,,,,,,,,,,,,,,,,,
,,,,,,,,,,,,,,,,,,,,,,,,,,,,,,,,,,,,,,,,4.861111111,6.6949,0,1,1,13,1,imagenes/Uvas.jpg,0.794832335,,pruebaprueba,2021-08-09_14h47.33.087,piloto2,2020.2.5,Win32,60,,,,,,,,,,,,,,,,,,,,,,,,,,,,,,,,,,,,,,,,,,,,
,,,,,,,,,,,,,,,,,,,,,,,,,,,,,,,,,,,,,,,,3.449074074,4.7461,0,2,2,9,1,imagenes/Nutella (1).jpg,0.437754823,,pruebaprueba,2021-08-09_14h47.33.087,piloto2,2020.2.5,Win32,60,,,,,,,,,,,,,,,,,,,,,,,,,,,,,,,,,,,,,,,,,,,,
,,,,,,,,,,,,,,,,,,,,,,,,,,,,,,,,,,,,,,,,3.449074074,3.9651,0,3,3,8,1,imagenes/Muffin de banano.png,0.900189527,,pruebaprueba,2021-08-09_14h47.33.087,piloto2,2020.2.5,Win32,60,,,,,,,,,,,,,,,,,,,,,,,,,,,,,,,,,,,,,,,,,,,,
,,,,,,,,,,,,,,,,,,,,,,,,,,,,,,,,,,,,,,,,3.847222222,5.9292,0,4,4,3,1,imagenes/Chocoramo.jfif.jpg,0.980975186,,pruebaprueba,2021-08-09_14h47.33.087,piloto2,2020.2.5,Win32,60,,,,,,,,,,,,,,,,,,,,,,,,,,,,,,,,,,,,,,,,,,,,
,,,,,,,,,,,,,,,,,,,,,,,,,,,,,,,,,,,,,,,,3.967592593,4.5301,0,5,5,6,1,imagenes/Kiwi.jpg,0.589553343,,pruebaprueba,2021-08-09_14h47.33.087,piloto2,2020.2.5,Win32,60,,,,,,,,,,,,,,,,,,,,,,,,,,,,,,,,,,,,,,,,,,,,
,,,,,,,,,,,,,,,,,,,,,,,,,,,,,,,,,,,,,,,,3.967592593,4.2067,0,6,6,10,1,imagenes/Pizza.png,0.985777273,,pruebaprueba,2021-08-09_14h47.33.087,piloto2,2020.2.5,Win32,60,,,,,,,,,,,,,,,,,,,,,,,,,,,,,,,,,,,,,,,,,,,,
,,,,,,,,,,,,,,,,,,,,,,,,,,,,,,,,,,,,,,,,3.791666667,5.3515,0,7,7,2,1,imagenes/Brownie.jpg,0.920182442,,pruebaprueba,2021-08-09_14h47.33.087,piloto2,2020.2.5,Win32,60,,,,,,,,,,,,,,,,,,,,,,,,,,,,,,,,,,,,,,,,,,,,
,,,,,,,,,,,,,,,,,,,,,,,,,,,,,,,,,,,,,,,,3.791666667,3.7977,0,8,8,7,1,imagenes/Manzana.jpg,0.247337473,,pruebaprueba,2021-08-09_14h47.33.087,piloto2,2020.2.5,Win32,60,,,,,,,,,,,,,,,,,,,,,,,,,,,,,,,,,,,,,,,,,,,,
,,,,,,,,,,,,,,,,,,,,,,,,,,,,,,,,,,,,,,,,3.791666667,3.7817,0,9,9,5,1,imagenes/Croissant.jpg,0.649947766,,pruebaprueba,2021-08-09_14h47.33.087,piloto2,2020.2.5,Win32,60,,,,,,,,,,,,,,,,,,,,,,,,,,,,,,,,,,,,,,,,,,,,
,,,,,,,,,,,,,,,,,,,,,,,,,,,,,,,,,,,,,,,,3.925925926,4.7664,0,10,10,12,1,imagenes/salchicha hojaldrada.jpg,0.505550823,,pruebaprueba,2021-08-09_14h47.33.087,piloto2,2020.2.5,Win32,60,,,,,,,,,,,,,,,,,,,,,,,,,,,,,,,,,,,,,,,,,,,,
,,,,,,,,,,,,,,,,,,,,,,,,,,,,,,,,,,,,,,,,4.046296296,6.7291,0,11,11,11,1,imagenes/Pizzetas.png,0.028367897,,pruebaprueba,2021-08-09_14h47.33.087,piloto2,2020.2.5,Win32,60,,,,,,,,,,,,,,,,,,,,,,,,,,,,,,,,,,,,,,,,,,,,
,,,,,,,,,,,,,,,,,,,,,,,,,,,,,,,,,,,,,,,,4.324074074,9.653,0,12,12,1,1,imagenes/Brocoli.jpg,0.68116784,,pruebaprueba,2021-08-09_14h47.33.087,piloto2,2020.2.5,Win32,60,,,,,,,,,,,,,,,,,,,,,,,,,,,,,,,,,,,,,,,,,,,,
,,,,,,,,,,,,,,,,,,,,,,,,,,,,,,,,,,,,,,,,4.291666667,7.7362,0,13,13,4,1,imagenes/Coliflor.jpg,0.647203594,,pruebaprueba,2021-08-09_14h47.33.087,piloto2,2020.2.5,Win32,60,,,,,,,,,,,,,,,,,,,,,,,,,,,,,,,,,,,,,,,,,,,,
,,,,,,,,,,,,,,,,,,,,,,,,,,,,,,,,,,,,,,,,,,,,,,,,,,pruebaprueba,2021-08-09_14h47.33.087,piloto2,2020.2.5,Win32,60,0,0,0,2,1,1000,0.02,,,,,,,,,,,,,,,,,,,,,,,,,,,,,,,,,,,,,
,,,,,,,,,,,,,,,,,,,,,,,,,,,,,,,,,,,,,,,,4.291666667,3.9445,0,0,0,9,1,imagenes/Nutella (1).jpg,0.437754823,,pruebaprueba,2021-08-09_14h47.33.087,piloto2,2020.2.5,Win32,60,,,,,,,,,,,,,,,,,,,,,,,,,,,,,,,,,,,,,,,,,,,,
,,,,,,,,,,,,,,,,,,,,,,,,,,,,,,,,,,,,,,,,4.291666667,4.5671,0,1,1,12,1,imagenes/salchicha hojaldrada.jpg,0.505550823,,pruebaprueba,2021-08-09_14h47.33.087,piloto2,2020.2.5,Win32,60,,,,,,,,,,,,,,,,,,,,,,,,,,,,,,,,,,,,,,,,,,,,
,,,,,,,,,,,,,,,,,,,,,,,,,,,,,,,,,,,,,,,,4.074074074,4.0618,0,2,2,6,1,imagenes/Kiwi.jpg,0.589553343,,pruebaprueba,2021-08-09_14h47.33.087,piloto2,2020.2.5,Win32,60,,,,,,,,,,,,,,,,,,,,,,,,,,,,,,,,,,,,,,,,,,,,
,,,,,,,,,,,,,,,,,,,,,,,,,,,,,,,,,,,,,,,,4.074074074,3.0774,0,3,3,5,1,imagenes/Croissant.jpg,0.649947766,,pruebaprueba,2021-08-09_14h47.33.087,piloto2,2020.2.5,Win32,60,,,,,,,,,,,,,,,,,,,,,,,,,,,,,,,,,,,,,,,,,,,,
,,,,,,,,,,,,,,,,,,,,,,,,,,,,,,,,,,,,,,,,3.564814815,4.63,0,4,4,3,1,imagenes/Chocoramo.jfif.jpg,0.980975186,,pruebaprueba,2021-08-09_14h47.33.087,piloto2,2020.2.5,Win32,60,,,,,,,,,,,,,,,,,,,,,,,,,,,,,,,,,,,,,,,,,,,,
,,,,,,,,,,,,,,,,,,,,,,,,,,,,,,,,,,,,,,,,4.319444444,4.0325,0,5,5,7,1,imagenes/Manzana.jpg,0.247337473,,pruebaprueba,2021-08-09_14h47.33.087,piloto2,2020.2.5,Win32,60,,,,,,,,,,,,,,,,,,,,,,,,,,,,,,,,,,,,,,,,,,,,
,,,,,,,,,,,,,,,,,,,,,,,,,,,,,,,,,,,,,,,,5.324074074,3.9536,0,6,6,0,1,imagenes/Banano.jpeg,0.297138401,,pruebaprueba,2021-08-09_14h47.33.087,piloto2,2020.2.5,Win32,60,,,,,,,,,,,,,,,,,,,,,,,,,,,,,,,,,,,,,,,,,,,,
,,,,,,,,,,,,,,,,,,,,,,,,,,,,,,,,,,,,,,,,2.907407407,3.5155,0,7,7,4,1,imagenes/Coliflor.jpg,0.647203594,,pruebaprueba,2021-08-09_14h47.33.087,piloto2,2020.2.5,Win32,60,,,,,,,,,,,,,,,,,,,,,,,,,,,,,,,,,,,,,,,,,,,,
,,,,,,,,,,,,,,,,,,,,,,,,,,,,,,,,,,,,,,,,3.398148148,3.5347,0,8,8,11,1,imagenes/Pizzetas.png,0.028367897,,pruebaprueba,2021-08-09_14h47.33.087,piloto2,2020.2.5,Win32,60,,,,,,,,,,,,,,,,,,,,,,,,,,,,,,,,,,,,,,,,,,,,
,,,,,,,,,,,,,,,,,,,,,,,,,,,,,,,,,,,,,,,,3.791666667,4.9519,0,9,9,10,1,imagenes/Pizza.png,0.985777273,,pruebaprueba,2021-08-09_14h47.33.087,piloto2,2020.2.5,Win32,60,,,,,,,,,,,,,,,,,,,,,,,,,,,,,,,,,,,,,,,,,,,,
,,,,,,,,,,,,,,,,,,,,,,,,,,,,,,,,,,,,,,,,3.777777778,4.4716,0,10,10,13,1,imagenes/Uvas.jpg,0.794832335,,pruebaprueba,2021-08-09_14h47.33.087,piloto2,2020.2.5,Win32,60,,,,,,,,,,,,,,,,,,,,,,,,,,,,,,,,,,,,,,,,,,,,
,,,,,,,,,,,,,,,,,,,,,,,,,,,,,,,,,,,,,,,,3.75,4.4354,0,11,11,8,1,imagenes/Muffin de banano.png,0.900189527,,pruebaprueba,2021-08-09_14h47.33.087,piloto2,2020.2.5,Win32,60,,,,,,,,,,,,,,,,,,,,,,,,,,,,,,,,,,,,,,,,,,,,
,,,,,,,,,,,,,,,,,,,,,,,,,,,,,,,,,,,,,,,,3.421296296,5.226,0,12,12,2,1,imagenes/Brownie.jpg,0.920182442,,pruebaprueba,2021-08-09_14h47.33.087,piloto2,2020.2.5,Win32,60,,,,,,,,,,,,,,,,,,,,,,,,,,,,,,,,,,,,,,,,,,,,
,,,,,,,,,,,,,,,,,,,,,,,,,,,,,,,,,,,,,,,,3.388888889,5.9486,0,13,13,1,1,imagenes/Brocoli.jpg,0.68116784,,pruebaprueba,2021-08-09_14h47.33.087,piloto2,2020.2.5,Win32,60,,,,,,,,,,,,,,,,,,,,,,,,,,,,,,,,,,,,,,,,,,,,
,,,,,,,,,,,,,,,,,,,,,,,,,,,,,,,,,,,,,,,,,,,,,,,,,,pruebaprueba,2021-08-09_14h47.33.087,piloto2,2020.2.5,Win32,60,0,1,1,3,1,1000,0,,,,,,,,,,,,,,,,,,,,,,,,,,,,,,,,,,,,,
,,,,,,,,,,,,,,,,,,,,,,,,,,,,,,,,,,,,,,,,3.421296296,5.3391,0,0,0,2,1,imagenes/Brownie.jpg,0.920182442,,pruebaprueba,2021-08-09_14h47.33.087,piloto2,2020.2.5,Win32,60,,,,,,,,,,,,,,,,,,,,,,,,,,,,,,,,,,,,,,,,,,,,
,,,,,,,,,,,,,,,,,,,,,,,,,,,,,,,,,,,,,,,,3.421296296,3.3386,0,1,1,0,1,imagenes/Banano.jpeg,0.297138401,,pruebaprueba,2021-08-09_14h47.33.087,piloto2,2020.2.5,Win32,60,,,,,,,,,,,,,,,,,,,,,,,,,,,,,,,,,,,,,,,,,,,,
,,,,,,,,,,,,,,,,,,,,,,,,,,,,,,,,,,,,,,,,3.439814815,4.3999,0,2,2,9,1,imagenes/Nutella (1).jpg,0.437754823,,pruebaprueba,2021-08-09_14h47.33.087,piloto2,2020.2.5,Win32,60,,,,,,,,,,,,,,,,,,,,,,,,,,,,,,,,,,,,,,,,,,,,
,,,,,,,,,,,,,,,,,,,,,,,,,,,,,,,,,,,,,,,,3.356481481,8.8486,0,3,3,5,1,imagenes/Croissant.jpg,0.649947766,,pruebaprueba,2021-08-09_14h47.33.087,piloto2,2020.2.5,Win32,60,,,,,,,,,,,,,,,,,,,,,,,,,,,,,,,,,,,,,,,,,,,,
,,,,,,,,,,,,,,,,,,,,,,,,,,,,,,,,,,,,,,,,3.356481481,5.562,0,4,4,4,1,imagenes/Coliflor.jpg,0.647203594,,pruebaprueba,2021-08-09_14h47.33.087,piloto2,2020.2.5,Win32,60,,,,,,,,,,,,,,,,,,,,,,,,,,,,,,,,,,,,,,,,,,,,
,,,,,,,,,,,,,,,,,,,,,,,,,,,,,,,,,,,,,,,,3.259259259,6.9637,0,5,5,12,1,imagenes/salchicha hojaldrada.jpg,0.505550823,,pruebaprueba,2021-08-09_14h47.33.087,piloto2,2020.2.5,Win32,60,,,,,,,,,,,,,,,,,,,,,,,,,,,,,,,,,,,,,,,,,,,,
,,,,,,,,,,,,,,,,,,,,,,,,,,,,,,,,,,,,,,,,3.259259259,7.8883,0,6,6,10,1,imagenes/Pizza.png,0.985777273,,pruebaprueba,2021-08-09_14h47.33.087,piloto2,2020.2.5,Win32,60,,,,,,,,,,,,,,,,,,,,,,,,,,,,,,,,,,,,,,,,,,,,
,,,,,,,,,,,,,,,,,,,,,,,,,,,,,,,,,,,,,,,,3.259259259,3.9333,0,7,7,6,1,imagenes/Kiwi.jpg,0.589553343,,pruebaprueba,2021-08-09_14h47.33.087,piloto2,2020.2.5,Win32,60,,,,,,,,,,,,,,,,,,,,,,,,,,,,,,,,,,,,,,,,,,,,
,,,,,,,,,,,,,,,,,,,,,,,,,,,,,,,,,,,,,,,,3.259259259,7.2854,0,8,8,13,1,imagenes/Uvas.jpg,0.794832335,,pruebaprueba,2021-08-09_14h47.33.087,piloto2,2020.2.5,Win32,60,,,,,,,,,,,,,,,,,,,,,,,,,,,,,,,,,,,,,,,,,,,,
,,,,,,,,,,,,,,,,,,,,,,,,,,,,,,,,,,,,,,,,3.231481481,5.3042,0,9,9,8,1,imagenes/Muffin de banano.png,0.900189527,,pruebaprueba,2021-08-09_14h47.33.087,piloto2,2020.2.5,Win32,60,,,,,,,,,,,,,,,,,,,,,,,,,,,,,,,,,,,,,,,,,,,,
,,,,,,,,,,,,,,,,,,,,,,,,,,,,,,,,,,,,,,,,3.231481481,3.9025,0,10,10,11,1,imagenes/Pizzetas.png,0.028367897,,pruebaprueba,2021-08-09_14h47.33.087,piloto2,2020.2.5,Win32,60,,,,,,,,,,,,,,,,,,,,,,,,,,,,,,,,,,,,,,,,,,,,
,,,,,,,,,,,,,,,,,,,,,,,,,,,,,,,,,,,,,,,,3.231481481,6.5203,0,11,11,3,1,imagenes/Chocoramo.jfif.jpg,0.980975186,,pruebaprueba,2021-08-09_14h47.33.087,piloto2,2020.2.5,Win32,60,,,,,,,,,,,,,,,,,,,,,,,,,,,,,,,,,,,,,,,,,,,,
,,,,,,,,,,,,,,,,,,,,,,,,,,,,,,,,,,,,,,,,3.194444444,6.2689,0,12,12,7,1,imagenes/Manzana.jpg,0.247337473,,pruebaprueba,2021-08-09_14h47.33.087,piloto2,2020.2.5,Win32,60,,,,,,,,,,,,,,,,,,,,,,,,,,,,,,,,,,,,,,,,,,,,
,,,,,,,,,,,,,,,,,,,,,,,,,,,,,,,,,,,,,,,,3.226851852,7.9881,0,13,13,1,1,imagenes/Brocoli.jpg,0.68116784,,pruebaprueba,2021-08-09_14h47.33.087,piloto2,2020.2.5,Win32,60,,,,,,,,,,,,,,,,,,,,,,,,,,,,,,,,,,,,,,,,,,,,
,,,,,,,,,,,,,,,,,,,,,,,,,,,,,,,,,,,,,,,,,,,,,,,,,,pruebaprueba,2021-08-09_14h47.33.087,piloto2,2020.2.5,Win32,60,0,2,2,1,1,1500,0.02,,,,,,,,,,,,,,,,,,,,,,,,,,,,,,,,,,,,,
,,,,,,,,,,,,,,,,,,,,,,,,,,,,,,,,,,,,,,,,3.226851852,4.3985,0,0,0,12,1,imagenes/salchicha hojaldrada.jpg,0.505550823,,pruebaprueba,2021-08-09_14h47.33.087,piloto2,2020.2.5,Win32,60,,,,,,,,,,,,,,,,,,,,,,,,,,,,,,,,,,,,,,,,,,,,
,,,,,,,,,,,,,,,,,,,,,,,,,,,,,,,,,,,,,,,,3.217592593,4.0504,0,1,1,10,1,imagenes/Pizza.png,0.985777273,,pruebaprueba,2021-08-09_14h47.33.087,piloto2,2020.2.5,Win32,60,,,,,,,,,,,,,,,,,,,,,,,,,,,,,,,,,,,,,,,,,,,,
,,,,,,,,,,,,,,,,,,,,,,,,,,,,,,,,,,,,,,,,3.180555556,4.2643,0,2,2,0,1,imagenes/Banano.jpeg,0.297138401,,pruebaprueba,2021-08-09_14h47.33.087,piloto2,2020.2.5,Win32,60,,,,,,,,,,,,,,,,,,,,,,,,,,,,,,,,,,,,,,,,,,,,
,,,,,,,,,,,,,,,,,,,,,,,,,,,,,,,,,,,,,,,,3.189814815,9.3527,0,3,3,13,1,imagenes/Uvas.jpg,0.794832335,,pruebaprueba,2021-08-09_14h47.33.087,piloto2,2020.2.5,Win32,60,,,,,,,,,,,,,,,,,,,,,,,,,,,,,,,,,,,,,,,,,,,,
,,,,,,,,,,,,,,,,,,,,,,,,,,,,,,,,,,,,,,,,3.189814815,4.0418,0,4,4,5,1,imagenes/Croissant.jpg,0.649947766,,pruebaprueba,2021-08-09_14h47.33.087,piloto2,2020.2.5,Win32,60,,,,,,,,,,,,,,,,,,,,,,,,,,,,,,,,,,,,,,,,,,,,
,,,,,,,,,,,,,,,,,,,,,,,,,,,,,,,,,,,,,,,,3.189814815,3.9093,0,5,5,6,1,imagenes/Kiwi.jpg,0.589553343,,pruebaprueba,2021-08-09_14h47.33.087,piloto2,2020.2.5,Win32,60,,,,,,,,,,,,,,,,,,,,,,,,,,,,,,,,,,,,,,,,,,,,
,,,,,,,,,,,,,,,,,,,,,,,,,,,,,,,,,,,,,,,,3.189814815,6.3243,0,6,6,9,1,imagenes/Nutella (1).jpg,0.437754823,,pruebaprueba,2021-08-09_14h47.33.087,piloto2,2020.2.5,Win32,60,,,,,,,,,,,,,,,,,,,,,,,,,,,,,,,,,,,,,,,,,,,,
,,,,,,,,,,,,,,,,,,,,,,,,,,,,,,,,,,,,,,,,3.189814815,3.8664,0,7,7,3,1,imagenes/Chocoramo.jfif.jpg,0.980975186,,pruebaprueba,2021-08-09_14h47.33.087,piloto2,2020.2.5,Win32,60,,,,,,,,,,,,,,,,,,,,,,,,,,,,,,,,,,,,,,,,,,,,
,,,,,,,,,,,,,,,,,,,,,,,,,,,,,,,,,,,,,,,,3.162037037,11.3647,0,8,8,7,1,imagenes/Manzana.jpg,0.247337473,,pruebaprueba,2021-08-09_14h47.33.087,piloto2,2020.2.5,Win32,60,,,,,,,,,,,,,,,,,,,,,,,,,,,,,,,,,,,,,,,,,,,,
,,,,,,,,,,,,,,,,,,,,,,,,,,,,,,,,,,,,,,,,3.162037037,7.357,0,9,9,4,1,imagenes/Coliflor.jpg,0.647203594,,pruebaprueba,2021-08-09_14h47.33.087,piloto2,2020.2.5,Win32,60,,,,,,,,,,,,,,,,,,,,,,,,,,,,,,,,,,,,,,,,,,,,
,,,,,,,,,,,,,,,,,,,,,,,,,,,,,,,,,,,,,,,,3.162037037,3.6018,0,10,10,1,1,imagenes/Brocoli.jpg,0.68116784,,pruebaprueba,2021-08-09_14h47.33.087,piloto2,2020.2.5,Win32,60,,,,,,,,,,,,,,,,,,,,,,,,,,,,,,,,,,,,,,,,,,,,
,,,,,,,,,,,,,,,,,,,,,,,,,,,,,,,,,,,,,,,,3.162037037,4.1553,0,11,11,11,1,imagenes/Pizzetas.png,0.028367897,,pruebaprueba,2021-08-09_14h47.33.087,piloto2,2020.2.5,Win32,60,,,,,,,,,,,,,,,,,,,,,,,,,,,,,,,,,,,,,,,,,,,,
,,,,,,,,,,,,,,,,,,,,,,,,,,,,,,,,,,,,,,,,3.162037037,3.9898,0,12,12,2,1,imagenes/Brownie.jpg,0.920182442,,pruebaprueba,2021-08-09_14h47.33.087,piloto2,2020.2.5,Win32,60,,,,,,,,,,,,,,,,,,,,,,,,,,,,,,,,,,,,,,,,,,,,
,,,,,,,,,,,,,,,,,,,,,,,,,,,,,,,,,,,,,,,,2.930555556,3.8594,0,13,13,8,1,imagenes/Muffin de banano.png,0.900189527,,pruebaprueba,2021-08-09_14h47.33.087,piloto2,2020.2.5,Win32,60,,,,,,,,,,,,,,,,,,,,,,,,,,,,,,,,,,,,,,,,,,,,
,,,,,,,,,,,,,,,,,,,,,,,,,,,,,,,,,,,,,,,,,,,,,,,,,,pruebaprueba,2021-08-09_14h47.33.087,piloto2,2020.2.5,Win32,60,0,3,3,0,1,400,0.02,,,,,,,,,,,,,,,,,,,,,,,,,,,,,,,,,,,,,
,,,,,,,,,,,,,,,,,,,,,,,,,,,,,,,,,,,,,,,,,,,,,,,,,,pruebaprueba,2021-08-09_14h47.33.087,piloto2,2020.2.5,Win32,60,,,,,,,,0.849860982,-0.229379055,0,0,0,0.651851852,-0.35,1,0,0,boton_pago1,imagenes/Croissant.jpg,0.705555556,-0.324074074,1,0,0,boton_pago2,0.65,-0.352777778,1,0,0,boton_producto,Usted ha ganado 20.000 pesos,0.65,-0.352777778,1,0,0,boton_pago3,0.65462963,-0.325925926,1,0,0,boton_intro_encuesta
