Hertz,volumen,Imagenes,Random,Correcto,trials.thisRepN,trials.thisTrialN,trials.thisN,trials.thisIndex,trials_2.thisRepN,trials_2.thisTrialN,trials_2.thisN,trials_2.thisIndex,sound_3.started,sound_3.stopped,Sonido.started,Sonido.stopped,image_2.started,image_2.stopped,slider_2.response,slider_2.rt,slider_2.started,slider_2.stopped,text_2.started,text_2.stopped,text_3.started,text_3.stopped,text.started,text.stopped,text_4.started,text_4.stopped,participant,session,date,expName,psychopyVersion,frameRate,
400,0.02,imagenes/Pizzetas.png,0.3295951589873042,None,0,0,0,0,0,0,0,32,9.93898586000214,None,20.021548750000875,21.095141099998727,21.095141099998727,None,2.575520833333333,1.9906402000015078,21.095141099998727,None,,,,,,,,,q,001,2020_Dec_01_1710,piloto1,2020.2.5,59.86507609165064,
400,0.02,imagenes/Nutella (1).jpg,0.8826531883338111,None,0,0,0,0,0,1,1,12,,,22.055230119999763,23.054989599997498,23.054989599997498,None,1.8723958333333335,1.33844599999793,23.054989599997498,None,,,,,,,,,q,001,2020_Dec_01_1710,piloto1,2020.2.5,59.86507609165064,
400,0.02,imagenes/Pizza.png,0.21192443516553439,None,0,0,0,0,0,2,2,31,,,23.4379752199995,24.437721899997996,24.42109899999923,None,1.83984375,1.3111800999977277,24.42109899999923,None,,,,,,,,,q,001,2020_Dec_01_1710,piloto1,2020.2.5,59.86507609165064,
400,0.02,imagenes/Leche-de-almendras.jpg,0.3886559457994673,None,0,0,0,0,0,3,3,9,,,24.87100647000007,None,25.854358499997034,None,1.83984375,1.1306216999983008,25.854358499997034,None,,,,,,,,,q,001,2020_Dec_01_1710,piloto1,2020.2.5,59.86507609165064,
400,0.02,imagenes/Manzana.jpg,0.4048420327008191,None,0,0,0,0,0,4,4,11,,,26.037731519997763,27.03766170000017,27.03766170000017,None,1.83984375,1.6204361000018253,27.03766170000017,None,,,,,,,,,q,001,2020_Dec_01_1710,piloto1,2020.2.5,59.86507609165064,
400,0.02,imagenes/Alpinito.jpg,0.7416150880621702,None,0,0,0,0,0,5,5,0,,,27.73815823999976,None,28.73796299999958,None,2.2434895833333335,1.5401294999974198,28.73796299999958,None,,,,,,,,,q,001,2020_Dec_01_1710,piloto1,2020.2.5,59.86507609165064,
400,0.02,imagenes/Mango.jpeg,0.4341155418941499,None,0,0,0,0,0,6,6,10,,,29.321025219999868,None,30.304274999998597,None,2.419270833333333,1.2026331000015489,30.304274999998597,None,,,,,,,,,q,001,2020_Dec_01_1710,piloto1,2020.2.5,59.86507609165064,
400,0.02,imagenes/salchicha hojaldrada.jpg,0.7119773165481526,None,0,0,0,0,0,7,7,35,,,30.538092309997957,None,31.537955499999953,None,2.419270833333333,2.4761752000013075,31.537955499999953,None,,,,,,,,,q,001,2020_Dec_01_1710,piloto1,2020.2.5,59.86507609165064,
400,0.02,imagenes/Chocoramo.jfif.jpg,0.7425528559884101,None,0,0,0,0,0,8,8,4,,,33.05422521999863,34.05432490000021,34.05432490000021,None,2.419270833333333,1.289288600000873,34.05432490000021,None,,,,,,,,,q,001,2020_Dec_01_1710,piloto1,2020.2.5,59.86507609165064,
400,0.02,imagenes/Galletas-festival.jpg,0.11306074364032936,None,0,0,0,0,0,9,9,7,,,34.387471919998646,35.387663800000155,35.387663800000155,None,2.34765625,1.7439268000016455,35.387663800000155,None,,,,,,,,,q,001,2020_Dec_01_1710,piloto1,2020.2.5,59.86507609165064,
400,0.02,imagenes/Brownie.jpg,0.2838924074864093,None,0,0,0,0,0,10,10,3,,,36.18742113000081,None,37.17092789999879,None,2.1783854166666665,1.0510223999990558,37.17092789999879,None,,,,,,,,,q,001,2020_Dec_01_1710,piloto1,2020.2.5,59.86507609165064,
400,0.02,imagenes/Galletas Tosh.jpg,0.9129693753280027,None,0,0,0,0,0,11,11,6,,,37.27067491999988,38.270750199997565,38.270750199997565,None,2.11328125,1.192968600000313,38.270750199997565,None,,,,,,,,,q,001,2020_Dec_01_1710,piloto1,2020.2.5,59.86507609165064,
400,0.02,imagenes/Pepinillos.png,0.0038966441241518046,None,0,0,0,0,0,12,12,28,,,38.50421311999817,39.5041519999977,39.5041519999977,None,2.11328125,1.676064100000076,39.5041519999977,None,,,,,,,,,q,001,2020_Dec_01_1710,piloto1,2020.2.5,59.86507609165064,
400,0.02,imagenes/Uvas.jpg,0.4959291644143431,None,0,0,0,0,0,13,13,19,,,40.22067682000052,None,41.203713199996855,None,2.38671875,1.3681647000012163,41.203713199996855,None,,,,,,,,,q,001,2020_Dec_01_1710,piloto1,2020.2.5,59.86507609165064,
400,0.02,imagenes/Papas-limon.jpg,0.5280798509093595,None,0,0,0,0,0,14,14,14,,,41.6038815099997,42.60369539999738,42.60369539999738,None,2.477864583333333,1.2386678000002576,42.60369539999738,None,,,,,,,,,q,001,2020_Dec_01_1710,piloto1,2020.2.5,59.86507609165064,
400,0.02,imagenes/pistachos.jpg,0.7450869742741464,None,0,0,0,0,0,15,15,30,,,42.87032440999938,43.87105559999691,43.85411589999785,None,2.477864583333333,1.2304444999972475,43.85411589999785,None,,,,,,,,,q,001,2020_Dec_01_1710,piloto1,2020.2.5,59.86507609165064,
400,0.02,imagenes/Pescadito.png,0.7172825011486081,None,0,0,0,0,0,16,16,29,,,44.13710691999877,None,45.120496799998364,None,2.477864583333333,1.030424699998548,45.120496799998364,None,,,,,,,,,q,001,2020_Dec_01_1710,piloto1,2020.2.5,59.86507609165064,
400,0.02,imagenes/Yogurt-alpina.jpg,0.5445152936222175,None,0,0,0,0,0,17,17,18,,,45.20354771999992,46.2036334000004,46.18722689999777,None,2.477864583333333,1.4024452000012388,46.18722689999777,None,,,,,,,,,q,001,2020_Dec_01_1710,piloto1,2020.2.5,59.86507609165064,
400,0.02,imagenes/Muffin de banano.png,0.9610615059009696,None,0,0,0,0,0,18,18,25,,,46.65355252999762,None,47.637241299999005,None,2.477864583333333,1.4984385000025213,47.637241299999005,None,,,,,,,,,q,001,2020_Dec_01_1710,piloto1,2020.2.5,59.86507609165064,
400,0.02,imagenes/Popetas.jpg,0.9621625733302204,None,0,0,0,0,0,19,19,16,,,48.20351832999841,49.20327429999816,49.18653859999904,None,2.477864583333333,1.7109122000001662,49.18653859999904,None,,,,,,,,,q,001,2020_Dec_01_1710,piloto1,2020.2.5,59.86507609165064,
400,0.02,imagenes/Rollo de queso.png,0.9201641182756888,None,0,0,0,0,0,20,20,33,,,49.95314821999928,None,50.93670249999923,None,2.477864583333333,1.5826120999990962,50.93670249999923,None,,,,,,,,,q,001,2020_Dec_01_1710,piloto1,2020.2.5,59.86507609165064,
400,0.02,imagenes/Pandebono.png,0.8988574378129985,None,0,0,0,0,0,21,21,26,,,51.57008441999933,None,52.55360899999869,None,2.477864583333333,1.7126674999999523,52.55360899999869,None,,,,,,,,,q,001,2020_Dec_01_1710,piloto1,2020.2.5,59.86507609165064,
400,0.02,imagenes/Brocoli.jpg,0.24293074945529525,None,0,0,0,0,0,22,22,21,,,53.303330610000195,None,54.28822930000024,None,2.477864583333333,1.095242400002462,54.28822930000024,None,,,,,,,,,q,001,2020_Dec_01_1710,piloto1,2020.2.5,59.86507609165064,
400,0.02,imagenes/Rosquitas (1).jpg,0.024090340010977873,None,0,0,0,0,0,23,23,17,,,54.453514829997225,None,55.4366975999983,None,2.477864583333333,1.6174950000022363,55.4366975999983,None,,,,,,,,,q,001,2020_Dec_01_1710,piloto1,2020.2.5,59.86507609165064,
400,0.02,imagenes/Banano.jpeg,0.2267656716538785,None,0,0,0,0,0,24,24,1,,,56.10343851999933,57.10336499999903,57.08649279999736,None,2.575520833333333,1.4997567999998864,57.08649279999736,None,,,,,,,,,q,001,2020_Dec_01_1710,piloto1,2020.2.5,59.86507609165064,
400,0.02,imagenes/Almojabanas.png,0.6725051200713246,None,0,0,0,0,0,25,25,20,,,57.653372929997936,None,58.636459899997135,None,2.705729166666667,1.14992809999967,58.636459899997135,None,,,,,,,,,q,001,2020_Dec_01_1710,piloto1,2020.2.5,59.86507609165064,
400,0.02,imagenes/Chontaduro.png,0.8693553300418813,None,0,0,0,0,0,26,26,23,,,58.81993960999862,59.819861699998,59.819861699998,None,2.705729166666667,1.7529933000005258,59.819861699998,None,,,,,,,,,q,001,2020_Dec_01_1710,piloto1,2020.2.5,59.86507609165064,
400,0.02,imagenes/Croissant.jpg,0.5824748589948932,None,0,0,0,0,0,27,27,5,,,60.61971311999805,61.61945419999756,61.61945419999756,None,2.705729166666667,1.7065012999992177,61.61945419999756,None,,,,,,,,,q,001,2020_Dec_01_1710,piloto1,2020.2.5,59.86507609165064,
400,0.02,imagenes/Rollos de canela.png,0.2610974409574519,None,0,0,0,0,0,28,28,34,,,62.369581219997784,63.36968960000013,63.35320109999884,None,2.705729166666667,1.315590300000622,63.35320109999884,None,,,,,,,,,q,001,2020_Dec_01_1710,piloto1,2020.2.5,59.86507609165064,
400,0.02,imagenes/Coliflor.jpg,0.3640740491088985,None,0,0,0,0,0,29,29,24,,,63.71965141999972,None,64.70278150000013,None,2.705729166666667,1.4352022999992187,64.70278150000013,None,,,,,,,,,q,001,2020_Dec_01_1710,piloto1,2020.2.5,59.86507609165064,
400,0.02,imagenes/bon-bon-bun.jpg,0.7417452724056987,None,0,0,0,0,0,30,30,2,,,65.20295723000054,None,66.1871519999986,None,2.705729166666667,1.46131830000013,66.1871519999986,None,,,,,,,,,q,001,2020_Dec_01_1710,piloto1,2020.2.5,59.86507609165064,
400,0.02,imagenes/Canelazo.png,0.6730479360767814,None,0,0,0,0,0,31,31,22,,,66.73617374000095,67.73604820000037,67.71940289999839,None,2.705729166666667,1.5614166999985173,67.71940289999839,None,,,,,,,,,q,001,2020_Dec_01_1710,piloto1,2020.2.5,59.86507609165064,
400,0.02,imagenes/Kiwi.jpg,0.3929145850942286,None,0,0,0,0,0,32,32,8,,,68.31942700999898,69.31957109999712,69.31957109999712,None,2.705729166666667,1.5760826000005181,69.31957109999712,None,,,,,,,,,q,001,2020_Dec_01_1710,piloto1,2020.2.5,59.86507609165064,
400,0.02,imagenes/Papas-pollo.jpg,0.08373485417902837,None,0,0,0,0,0,33,33,15,,,69.91932810999751,70.91902279999704,70.91902279999704,None,2.705729166666667,1.0731082999991486,70.91902279999704,None,,,,,,,,,q,001,2020_Dec_01_1710,piloto1,2020.2.5,59.86507609165064,
400,0.02,imagenes/Papas picantes.jpg,0.524978898672612,None,0,0,0,0,0,34,34,27,,,71.01928281000036,72.01920880000034,72.00279500000033,None,2.705729166666667,1.1278906000006828,72.00279500000033,None,,,,,,,,,q,001,2020_Dec_01_1710,piloto1,2020.2.5,59.86507609165064,
400,0.02,imagenes/Papas-naturales.jpg,0.37590629905521566,None,0,0,0,0,0,35,35,13,,,72.1694376099982,73.16914159999942,73.16914159999942,None,2.705729166666667,1.0537050000020827,73.16914159999942,None,,,,,,,,,q,001,2020_Dec_01_1710,piloto1,2020.2.5,59.86507609165064,
400,0.02,,,,0,0,0,0,,,,,,,,,,,,,,,,,,,,,,,q,001,2020_Dec_01_1710,piloto1,2020.2.5,59.86507609165064,
1000,0.02,imagenes/Almojabanas.png,0.6725051200713246,None,0,1,1,2,0,0,0,20,,,73.26902382000043,74.26929249999739,74.26929249999739,None,2.705729166666667,1.0378788000016357,74.26929249999739,None,,,,,,,,,q,001,2020_Dec_01_1710,piloto1,2020.2.5,59.86507609165064,
1000,0.02,imagenes/Pepinillos.png,0.0038966441241518046,None,0,1,1,2,0,1,1,28,,,74.35230691999749,75.35289389999889,75.35289389999889,None,2.705729166666667,1.2101223999998183,75.35289389999889,None,,,,,,,,,q,001,2020_Dec_01_1710,piloto1,2020.2.5,59.86507609165064,
1000,0.02,imagenes/Leche-de-almendras.jpg,0.3886559457994673,None,0,1,1,2,0,2,2,9,,,75.65209474999756,None,76.65210149999984,None,2.69921875,1.930026900001394,76.65210149999984,None,,,,,,,,,q,001,2020_Dec_01_1710,piloto1,2020.2.5,59.86507609165064,
1000,0.02,imagenes/Uvas.jpg,0.4959291644143431,None,0,1,1,2,0,3,3,19,,,77.63756851999932,None,78.62045959999887,None,2.692708333333333,1.2506312000004982,78.62045959999887,None,,,,,,,,,q,001,2020_Dec_01_1710,piloto1,2020.2.5,59.86507609165064,
1000,0.02,imagenes/Canelazo.png,0.6730479360767814,None,0,1,1,2,0,4,4,22,,,78.95376903999785,None,79.93860139999742,None,2.692708333333333,1.1645379000001412,79.93860139999742,None,,,,,,,,,q,001,2020_Dec_01_1710,piloto1,2020.2.5,59.86507609165064,
1000,0.02,imagenes/Galletas Tosh.jpg,0.9129693753280027,None,0,1,1,2,0,5,5,6,,,80.15397931999831,None,81.25038859999768,None,2.692708333333333,1.9382535000004282,81.25038859999768,None,,,,,,,,,q,001,2020_Dec_01_1710,piloto1,2020.2.5,59.86507609165064,
1000,0.02,imagenes/Yogurt-alpina.jpg,0.5445152936222175,None,0,1,1,2,0,6,6,18,,,82.1353214199982,None,83.11889809999775,None,2.692708333333333,1.136764499999117,83.11889809999775,None,,,,,,,,,q,001,2020_Dec_01_1710,piloto1,2020.2.5,59.86507609165064,
1000,0.02,imagenes/salchicha hojaldrada.jpg,0.7119773165481526,None,0,1,1,2,0,7,7,35,,,83.28518790999769,84.28532959999939,84.2687640999975,None,2.692708333333333,1.4808530000009341,84.2687640999975,None,,,,,,,,,q,001,2020_Dec_01_1710,piloto1,2020.2.5,59.86507609165064,
1000,0.02,imagenes/Popetas.jpg,0.9621625733302204,None,0,1,1,2,0,8,8,16,,,84.81859032999891,85.81904179999765,85.801929199999,None,2.692708333333333,1.1966281000022718,85.801929199999,None,,,,,,,,,q,001,2020_Dec_01_1710,piloto1,2020.2.5,59.86507609165064,
1000,0.02,imagenes/Rollo de queso.png,0.9201641182756888,None,0,1,1,2,0,9,9,33,,,86.05213731999828,87.05185559999882,87.05185559999882,None,2.692708333333333,2.2581033000024036,87.05185559999882,None,,,,,,,,,q,001,2020_Dec_01_1710,piloto1,2020.2.5,59.86507609165064,
1000,0.02,imagenes/Pizza.png,0.21192443516553439,None,0,1,1,2,0,10,10,31,,,88.33541320999902,89.33493939999971,89.33493939999971,None,2.692708333333333,1.402257699999609,89.33493939999971,None,,,,,,,,,q,001,2020_Dec_01_1710,piloto1,2020.2.5,59.86507609165064,
1000,0.02,imagenes/Pandebono.png,0.8988574378129985,None,0,1,1,2,0,11,11,26,,,89.78536731999992,90.78487759999916,90.76859960000002,None,2.497395833333333,1.4623800999979721,90.76859960000002,None,,,,,,,,,q,001,2020_Dec_01_1710,piloto1,2020.2.5,59.86507609165064,
1000,0.02,imagenes/Rosquitas (1).jpg,0.024090340010977873,None,0,1,1,2,0,12,12,17,,,91.28495421999759,None,92.28491930000018,None,2.295572916666667,1.2588235000002896,92.28491930000018,None,,,,,,,,,q,001,2020_Dec_01_1710,piloto1,2020.2.5,59.86507609165064,
1000,0.02,imagenes/Croissant.jpg,0.5824748589948932,None,0,1,1,2,0,13,13,5,,,92.6018416299983,None,93.58488249999937,None,2.295572916666667,1.1946552000008523,93.58488249999937,None,,,,,,,,,q,001,2020_Dec_01_1710,piloto1,2020.2.5,59.86507609165064,
1000,0.02,imagenes/Brocoli.jpg,0.24293074945529525,None,0,1,1,2,0,14,14,21,,,93.81804451000025,94.8183984999996,94.8183984999996,None,2.295572916666667,1.3778858999976364,94.8183984999996,None,,,,,,,,,q,001,2020_Dec_01_1710,piloto1,2020.2.5,59.86507609165064,
1000,0.02,imagenes/Coliflor.jpg,0.3640740491088985,None,0,1,1,2,0,15,15,24,,,95.21786810999728,96.21806730000026,96.21806730000026,None,2.295572916666667,1.4046545999990485,96.21806730000026,None,,,,,,,,,q,001,2020_Dec_01_1710,piloto1,2020.2.5,59.86507609165064,
1000,0.02,imagenes/Chocoramo.jfif.jpg,0.7425528559884101,None,0,1,1,2,0,16,16,4,,,96.68457902999835,None,97.6850102999997,None,2.295572916666667,1.5092686999996658,97.6850102999997,None,,,,,,,,,q,001,2020_Dec_01_1710,piloto1,2020.2.5,59.86507609165064,
1000,0.02,imagenes/Banano.jpeg,0.2267656716538785,None,0,1,1,2,0,17,17,1,,,98.23446701999927,None,99.21774169999844,None,2.295572916666667,1.532864900000277,99.21774169999844,None,,,,,,,,,q,001,2020_Dec_01_1710,piloto1,2020.2.5,59.86507609165064,
1000,0.02,imagenes/Rollos de canela.png,0.2610974409574519,None,0,1,1,2,0,18,18,34,,,99.80145711999938,100.80136169999969,100.78471459999855,None,None,None,100.78471459999855,None,,,,,,,,,q,001,2020_Dec_01_1710,piloto1,2020.2.5,59.86507609165064,
1000,0.02,imagenes/Muffin de banano.png,0.9610615059009696,None,0,1,1,2,0,19,19,25,,,102.81757932999862,103.81772739999724,103.80144559999826,102.81148899999971,2.295572916666667,1.4466404999984661,103.80144559999826,102.81148899999971,,,,,,,,,q,001,2020_Dec_01_1710,piloto1,2020.2.5,59.86507609165064,
1000,0.02,imagenes/Chontaduro.png,0.8693553300418813,None,0,1,1,2,0,20,20,23,,,104.30118621999935,105.30136899999707,105.26789529999951,None,2.295572916666667,1.3363654999993742,105.26789529999951,None,,,,,,,,,q,001,2020_Dec_01_1710,piloto1,2020.2.5,59.86507609165064,
1000,0.02,imagenes/Brownie.jpg,0.2838924074864093,None,0,1,1,2,0,21,21,3,,,105.68428572999873,106.68406340000001,106.66739189999862,None,2.295572916666667,1.496035700001812,106.66739189999862,None,,,,,,,,,q,001,2020_Dec_01_1710,piloto1,2020.2.5,59.86507609165064,
1000,0.02,imagenes/bon-bon-bun.jpg,0.7417452724056987,None,0,1,1,2,0,22,22,2,,,107.23394312999771,None,108.21744599999874,None,2.295572916666667,1.878636199999164,108.21744599999874,None,,,,,,,,,q,001,2020_Dec_01_1710,piloto1,2020.2.5,59.86507609165064,
1000,0.02,imagenes/Alpinito.jpg,0.7416150880621702,None,0,1,1,2,0,23,23,0,,,109.16748022999927,None,110.1674282999993,None,2.295572916666667,1.3560835999996925,110.1674282999993,None,,,,,,,,,q,001,2020_Dec_01_1710,piloto1,2020.2.5,59.86507609165064,
1000,0.02,imagenes/Mango.jpeg,0.4341155418941499,None,0,1,1,2,0,24,24,10,,,110.56722151999855,111.56745979999687,111.56745979999687,None,2.295572916666667,2.1416253999996115,111.56745979999687,None,,,,,,,,,q,001,2020_Dec_01_1710,piloto1,2020.2.5,59.86507609165064,
1000,0.02,imagenes/Papas-pollo.jpg,0.08373485417902837,None,0,1,1,2,0,25,25,15,,,112.73401990999955,None,113.73396579999826,None,2.295572916666667,1.3896372000017436,113.73396579999826,None,,,,,,,,,q,001,2020_Dec_01_1710,piloto1,2020.2.5,59.86507609165064,
1000,0.02,imagenes/Papas picantes.jpg,0.524978898672612,None,0,1,1,2,0,26,26,27,,,114.15050630999721,None,115.13418479999746,None,2.295572916666667,1.2966988000007404,115.13418479999746,None,,,,,,,,,q,001,2020_Dec_01_1710,piloto1,2020.2.5,59.86507609165064,
1000,0.02,imagenes/Pescadito.png,0.7172825011486081,None,0,1,1,2,0,27,27,29,,,115.4838349199992,116.48419329999888,116.46705349999684,None,2.295572916666667,1.3775100999991992,116.46705349999684,None,,,,,,,,,q,001,2020_Dec_01_1710,piloto1,2020.2.5,59.86507609165064,
1000,0.02,imagenes/Nutella (1).jpg,0.8826531883338111,None,0,1,1,2,0,28,28,12,,,116.88365820999715,None,117.88351329999932,None,2.295572916666667,1.8048027000004367,117.88351329999932,None,,,,,,,,,q,001,2020_Dec_01_1710,piloto1,2020.2.5,59.86507609165064,
1000,0.02,imagenes/Kiwi.jpg,0.3929145850942286,None,0,1,1,2,0,29,29,8,,,118.71691060999692,None,119.7008836999994,None,2.295572916666667,1.4117266000030213,119.7008836999994,None,,,,,,,,,q,001,2020_Dec_01_1710,piloto1,2020.2.5,59.86507609165064,
1000,0.02,imagenes/Papas-naturales.jpg,0.37590629905521566,None,0,1,1,2,0,30,30,13,,,120.15014760999802,121.15053679999983,121.15053679999983,None,2.295572916666667,1.2887645000009798,121.15053679999983,None,,,,,,,,,q,001,2020_Dec_01_1710,piloto1,2020.2.5,59.86507609165064,
1000,0.02,imagenes/Manzana.jpg,0.4048420327008191,None,0,1,1,2,0,31,31,11,,,121.50044922999841,122.50048779999997,122.48354229999677,None,2.295572916666667,1.4970246000011684,122.48354229999677,None,,,,,,,,,q,001,2020_Dec_01_1710,piloto1,2020.2.5,59.86507609165064,
1000,0.02,imagenes/Papas-limon.jpg,0.5280798509093595,None,0,1,1,2,0,32,32,14,,,123.01687930999796,124.01672379999945,124.01672379999945,None,2.295572916666667,1.4719585999991978,124.01672379999945,None,,,,,,,,,q,001,2020_Dec_01_1710,piloto1,2020.2.5,59.86507609165064,
1000,0.02,imagenes/pistachos.jpg,0.7450869742741464,None,0,1,1,2,0,33,33,30,,,124.51664670999853,125.51667649999945,125.50037359999988,None,2.302083333333333,1.2133221000003687,125.50037359999988,None,,,,,,,,,q,001,2020_Dec_01_1710,piloto1,2020.2.5,59.86507609165064,
1000,0.02,imagenes/Galletas-festival.jpg,0.11306074364032936,None,0,1,1,2,0,34,34,7,,,125.76645471999944,None,126.75036609999734,None,2.302083333333333,1.247851799998898,126.75036609999734,None,,,,,,,,,q,001,2020_Dec_01_1710,piloto1,2020.2.5,59.86507609165064,
1000,0.02,imagenes/Pizzetas.png,0.3295951589873042,None,0,1,1,2,0,35,35,32,,,127.06660472999901,None,128.0333245999973,None,2.302083333333333,1.320188199999393,128.0333245999973,None,,,,,,,,,q,001,2020_Dec_01_1710,piloto1,2020.2.5,59.86507609165064,
1000,0.02,,,,0,1,1,2,,,,,,,,,,,,,,,,,,,,,,,q,001,2020_Dec_01_1710,piloto1,2020.2.5,59.86507609165064,
1500,0.02,imagenes/bon-bon-bun.jpg,0.7417452724056987,None,0,2,2,1,0,0,0,2,,,128.45006973999844,None,129.4346192999983,None,2.302083333333333,1.3185618000024988,129.4346192999983,None,,,,,,,,,q,001,2020_Dec_01_1710,piloto1,2020.2.5,59.86507609165064,
1500,0.02,imagenes/Galletas Tosh.jpg,0.9129693753280027,None,0,2,2,1,0,1,1,6,,,129.81639842999974,None,130.81625279999935,None,2.302083333333333,1.3435021999976016,130.81625279999935,None,,,,,,,,,q,001,2020_Dec_01_1710,piloto1,2020.2.5,59.86507609165064,
1500,0.02,imagenes/Mango.jpeg,0.4341155418941499,None,0,2,2,1,0,2,2,10,,,131.19956431999816,None,132.18329369999992,None,2.302083333333333,1.2994800999986182,132.18329369999992,None,,,,,,,,,q,001,2020_Dec_01_1710,piloto1,2020.2.5,59.86507609165064,
1500,0.02,imagenes/Nutella (1).jpg,0.8826531883338111,None,0,2,2,1,0,3,3,12,,,132.5163179099978,None,133.51621129999694,None,1.6575520833333335,1.4551427000005788,133.51621129999694,None,,,,,,,,,q,001,2020_Dec_01_1710,piloto1,2020.2.5,59.86507609165064,
1500,0.02,imagenes/Croissant.jpg,0.5824748589948932,None,0,2,2,1,0,4,4,5,,,134.01616532000043,135.0163345999972,135.0163345999972,None,3.1940104166666665,1.0721873000002233,135.0163345999972,None,,,,,,,,,q,001,2020_Dec_01_1710,piloto1,2020.2.5,59.86507609165064,
1500,0.02,imagenes/Manzana.jpg,0.4048420327008191,None,0,2,2,1,0,5,5,11,,,135.13298221999793,136.13304309999876,136.13304309999876,None,3.734375,1.1923611999991408,136.13304309999876,None,,,,,,,,,q,001,2020_Dec_01_1710,piloto1,2020.2.5,59.86507609165064,
1500,0.02,imagenes/Papas picantes.jpg,0.524978898672612,None,0,2,2,1,0,6,6,27,,,136.3493554099983,None,137.3324438999989,None,4.203125,1.2455408999994688,137.3324438999989,None,,,,,,,,,q,001,2020_Dec_01_1710,piloto1,2020.2.5,59.86507609165064,
1500,0.02,imagenes/Papas-naturales.jpg,0.37590629905521566,None,0,2,2,1,0,7,7,13,,,137.6160615099976,138.616095399997,138.616095399997,None,4.346354166666667,1.2387095999984012,138.616095399997,None,,,,,,,,,q,001,2020_Dec_01_1710,piloto1,2020.2.5,59.86507609165064,
1500,0.02,imagenes/Rosquitas (1).jpg,0.024090340010977873,None,0,2,2,1,0,8,8,17,,,138.89924891999834,139.89957309999954,139.89957309999954,None,4.854166666666666,1.3052830999986327,139.89957309999954,None,,,,,,,,,q,001,2020_Dec_01_1710,piloto1,2020.2.5,59.86507609165064,
1500,0.02,imagenes/Rollos de canela.png,0.2610974409574519,None,0,2,2,1,0,9,9,34,,,140.2491122200001,141.24977189999845,141.23293949999788,None,4.177083333333333,1.3007763999994495,141.23293949999788,None,,,,,,,,,q,001,2020_Dec_01_1710,piloto1,2020.2.5,59.86507609165064,
1500,0.02,imagenes/Papas-limon.jpg,0.5280798509093595,None,0,2,2,1,0,10,10,14,,,141.56619651000037,142.56599409999762,142.56599409999762,None,3.0442708333333335,1.3063974999968195,142.56599409999762,None,,,,,,,,,q,001,2020_Dec_01_1710,piloto1,2020.2.5,59.86507609165064,
1500,0.02,imagenes/Pescadito.png,0.7172825011486081,None,0,2,2,1,0,11,11,29,,,142.91604981999916,143.91585329999725,143.89946589999818,None,3.4869791666666665,1.1977592000002915,143.89946589999818,None,,,,,,,,,q,001,2020_Dec_01_1710,piloto1,2020.2.5,59.86507609165064,
1500,0.02,imagenes/Chontaduro.png,0.8693553300418813,None,0,2,2,1,0,12,12,23,,,144.13236630999708,145.13244809999742,145.13244809999742,None,4.385416666666667,1.2540522999988752,145.13244809999742,None,,,,,,,,,q,001,2020_Dec_01_1710,piloto1,2020.2.5,59.86507609165064,
1500,0.02,imagenes/Muffin de banano.png,0.9610615059009696,None,0,2,2,1,0,13,13,25,,,145.4490910299999,None,146.4489603999973,None,3.75390625,1.359774299999117,146.4489603999973,None,,,,,,,,,q,001,2020_Dec_01_1710,piloto1,2020.2.5,59.86507609165064,
1500,0.02,imagenes/Pizza.png,0.21192443516553439,None,0,2,2,1,0,14,14,31,,,146.8489583199982,None,147.83241599999747,None,3.4609375,1.2347718000019086,147.83241599999747,None,,,,,,,,,q,001,2020_Dec_01_1710,piloto1,2020.2.5,59.86507609165064,
1500,0.02,imagenes/Galletas-festival.jpg,0.11306074364032936,None,0,2,2,1,0,15,15,7,,,148.11551391999745,None,149.11559569999736,None,3.2135416666666665,1.3770265999992262,149.11559569999736,None,,,,,,,,,q,001,2020_Dec_01_1710,piloto1,2020.2.5,59.86507609165064,
1500,0.02,imagenes/Alpinito.jpg,0.7416150880621702,None,0,2,2,1,0,16,16,0,,,149.54873122999814,None,150.53208919999815,None,3.2916666666666665,1.4187582000013208,150.53208919999815,None,,,,,,,,,q,001,2020_Dec_01_1710,piloto1,2020.2.5,59.86507609165064,
1500,0.02,imagenes/Popetas.jpg,0.9621625733302204,None,0,2,2,1,0,17,17,16,,,151.01537492999958,152.0154939999993,152.0154939999993,None,3.2916666666666665,1.4919814000022598,152.0154939999993,None,,,,,,,,,q,001,2020_Dec_01_1710,piloto1,2020.2.5,59.86507609165064,
1500,0.02,imagenes/Uvas.jpg,0.4959291644143431,None,0,2,2,1,0,18,18,19,,,152.54860391999972,None,153.5333043999999,None,3.2916666666666665,1.03568919999816,153.5333043999999,None,,,,,,,,,q,001,2020_Dec_01_1710,piloto1,2020.2.5,59.86507609165064,
1500,0.02,imagenes/pistachos.jpg,0.7450869742741464,None,0,2,2,1,0,19,19,30,,,153.5990328099975,154.59862209999847,154.58225579999998,None,3.2916666666666665,1.5794601000015973,154.58225579999998,None,,,,,,,,,q,001,2020_Dec_01_1710,piloto1,2020.2.5,59.86507609165064,
1500,0.02,imagenes/Papas-pollo.jpg,0.08373485417902837,None,0,2,2,1,0,20,20,15,,,155.19883670999806,156.19869519999702,156.19869519999702,None,3.3111979166666665,1.4728381000022637,156.19869519999702,None,,,,,,,,,q,001,2020_Dec_01_1710,piloto1,2020.2.5,59.86507609165064,
1500,0.02,imagenes/Coliflor.jpg,0.3640740491088985,None,0,2,2,1,0,21,21,24,,,156.6984134099981,157.6983564000002,157.6983564000002,None,3.3111979166666665,1.3590825999999652,157.6983564000002,None,,,,,,,,,q,001,2020_Dec_01_1710,piloto1,2020.2.5,59.86507609165064,
1500,0.02,imagenes/Almojabanas.png,0.6725051200713246,None,0,2,2,1,0,22,22,20,,,158.0983482199983,159.09847389999777,159.09847389999777,None,3.3111979166666665,1.3532949000000372,159.09847389999777,None,,,,,,,,,q,001,2020_Dec_01_1710,piloto1,2020.2.5,59.86507609165064,
1500,0.02,imagenes/Banano.jpeg,0.2267656716538785,None,0,2,2,1,0,23,23,1,,,159.4983125199971,None,160.48166649999985,None,3.3111979166666665,1.453636500002176,160.48166649999985,None,,,,,,,,,q,001,2020_Dec_01_1710,piloto1,2020.2.5,59.86507609165064,
1500,0.02,imagenes/Kiwi.jpg,0.3929145850942286,None,0,2,2,1,0,24,24,8,,,160.9649077099999,161.9650361999993,161.94816229999924,None,3.32421875,1.4616185999984737,161.94816229999924,None,,,,,,,,,q,001,2020_Dec_01_1710,piloto1,2020.2.5,59.86507609165064,
1500,0.02,imagenes/Brocoli.jpg,0.24293074945529525,None,0,2,2,1,0,25,25,21,,,162.4481536099989,163.44830829999773,163.44830829999773,None,3.32421875,1.4447943999985,163.44830829999773,None,,,,,,,,,q,001,2020_Dec_01_1710,piloto1,2020.2.5,59.86507609165064,
1500,0.02,imagenes/Rollo de queso.png,0.9201641182756888,None,0,2,2,1,0,26,26,33,,,163.93156122,None,164.93161209999744,None,3.32421875,1.4401811999996426,164.93161209999744,None,,,,,,,,,q,001,2020_Dec_01_1710,piloto1,2020.2.5,59.86507609165064,
1500,0.02,imagenes/Pandebono.png,0.8988574378129985,None,0,2,2,1,0,27,27,26,,,165.41462572000017,None,166.41481779999958,None,3.32421875,1.4881084999979066,166.41481779999958,None,,,,,,,,,q,001,2020_Dec_01_1710,piloto1,2020.2.5,59.86507609165064,
1500,0.02,imagenes/Yogurt-alpina.jpg,0.5445152936222175,None,0,2,2,1,0,28,28,18,,,166.9479402200006,167.9481627999994,167.93161299999701,None,3.32421875,1.3490033999987645,167.93161299999701,None,,,,,,,,,q,001,2020_Dec_01_1710,piloto1,2020.2.5,59.86507609165064,
1500,0.02,imagenes/Pizzetas.png,0.3295951589873042,None,0,2,2,1,0,29,29,32,,,168.33112691999776,None,169.31545039999764,None,3.32421875,1.162118799999007,169.31545039999764,None,,,,,,,,,q,001,2020_Dec_01_1710,piloto1,2020.2.5,59.86507609165064,
1500,0.02,imagenes/Canelazo.png,0.6730479360767814,None,0,2,2,1,0,30,30,22,,,169.54764812999818,170.54805639999904,170.53145959999893,None,3.32421875,1.4481496999978845,170.53145959999893,None,,,,,,,,,q,001,2020_Dec_01_1710,piloto1,2020.2.5,59.86507609165064,
1500,0.02,imagenes/Brownie.jpg,0.2838924074864093,None,0,2,2,1,0,31,31,3,,,171.0477922300004,None,172.04769680000027,None,3.32421875,1.4419397999990906,172.04769680000027,None,,,,,,,,,q,001,2020_Dec_01_1710,piloto1,2020.2.5,59.86507609165064,
1500,0.02,imagenes/Leche-de-almendras.jpg,0.3886559457994673,None,0,2,2,1,0,32,32,9,,,172.61468966999854,173.61455360000036,173.59760249999817,None,3.32421875,1.3614223999975366,173.59760249999817,None,,,,,,,,,q,001,2020_Dec_01_1710,piloto1,2020.2.5,59.86507609165064,
1500,0.02,imagenes/salchicha hojaldrada.jpg,0.7119773165481526,None,0,2,2,1,0,33,33,35,,,173.9979357099979,174.9976674999998,174.98092369999722,None,3.32421875,1.296050799999648,174.98092369999722,None,,,,,,,,,q,001,2020_Dec_01_1710,piloto1,2020.2.5,59.86507609165064,
1500,0.02,imagenes/Pepinillos.png,0.0038966441241518046,None,0,2,2,1,0,34,34,28,,,175.33129361999744,None,176.31428819999928,None,3.32421875,1.4465514000003168,176.31428819999928,None,,,,,,,,,q,001,2020_Dec_01_1710,piloto1,2020.2.5,59.86507609165064,
1500,0.02,imagenes/Chocoramo.jfif.jpg,0.7425528559884101,None,0,2,2,1,0,35,35,4,,,176.81425891999896,177.81402650000018,177.81402650000018,None,3.32421875,1.2711569000020972,177.81402650000018,None,,,,,,,,,q,001,2020_Dec_01_1710,piloto1,2020.2.5,59.86507609165064,
1500,0.02,,,,0,2,2,1,,,,,,,,,,,,,,,,,,,,,,,q,001,2020_Dec_01_1710,piloto1,2020.2.5,59.86507609165064,
1000,0.0,imagenes/Rosquitas (1).jpg,0.024090340010977873,None,0,3,3,3,0,0,0,17,,,178.13051861999992,None,179.13133519999974,None,3.32421875,1.3434435999988636,179.13133519999974,None,,,,,,,,,q,001,2020_Dec_01_1710,piloto1,2020.2.5,59.86507609165064,
1000,0.0,imagenes/Papas-pollo.jpg,0.08373485417902837,None,0,3,3,3,0,1,1,15,,,179.49744900999903,180.49772719999964,180.49772719999964,None,3.4348958333333335,1.3891097999985504,180.49772719999964,None,,,,,,,,,q,001,2020_Dec_01_1710,piloto1,2020.2.5,59.86507609165064,
1000,0.0,imagenes/Brownie.jpg,0.2838924074864093,None,0,3,3,3,0,2,2,3,,,180.9473120299979,None,181.930668099998,None,3.4348958333333335,1.4337291000010737,181.930668099998,None,,,,,,,,,q,001,2020_Dec_01_1710,piloto1,2020.2.5,59.86507609165064,
1000,0.0,imagenes/Yogurt-alpina.jpg,0.5445152936222175,None,0,3,3,3,0,3,3,18,,,182.41425821999945,None,183.39728549999927,None,3.4348958333333335,1.3021193999993557,183.39728549999927,None,,,,,,,,,q,001,2020_Dec_01_1710,piloto1,2020.2.5,59.86507609165064,
1000,0.0,imagenes/Rollos de canela.png,0.2610974409574519,None,0,3,3,3,0,4,4,34,,,183.74717031999825,None,184.73050030000013,None,3.4348958333333335,1.7010460999990755,184.73050030000013,None,,,,,,,,,q,001,2020_Dec_01_1710,piloto1,2020.2.5,59.86507609165064,
1000,0.0,imagenes/Muffin de banano.png,0.9610615059009696,None,0,3,3,3,0,5,5,25,,,185.49739452999964,186.49715819999983,186.48064499999964,None,3.4348958333333335,1.3488546000007773,186.48064499999964,None,,,,,,,,,q,001,2020_Dec_01_1710,piloto1,2020.2.5,59.86507609165064,
1000,0.0,imagenes/pistachos.jpg,0.7450869742741464,None,0,3,3,3,0,6,6,30,,,186.86371520999782,None,187.8470426999993,None,3.4348958333333335,1.496212199999718,187.8470426999993,None,,,,,,,,,q,001,2020_Dec_01_1710,piloto1,2020.2.5,59.86507609165064,
1000,0.0,imagenes/Pandebono.png,0.8988574378129985,None,0,3,3,3,0,7,7,26,,,188.3969240199978,189.3970610999968,189.38057499999923,None,3.4348958333333335,1.5114991999980703,189.38057499999923,None,,,,,,,,,q,001,2020_Dec_01_1710,piloto1,2020.2.5,59.86507609165064,
1000,0.0,imagenes/Brocoli.jpg,0.24293074945529525,None,0,3,3,3,0,8,8,21,,,189.93035251,190.9307461999997,190.9307461999997,None,3.4348958333333335,1.4931114999999409,190.9307461999997,None,,,,,,,,,q,001,2020_Dec_01_1710,piloto1,2020.2.5,59.86507609165064,
1000,0.0,imagenes/Uvas.jpg,0.4959291644143431,None,0,3,3,3,0,9,9,19,,,191.46351561999762,None,192.44685190000018,None,3.4348958333333335,1.519390299999941,192.44685190000018,None,,,,,,,,,q,001,2020_Dec_01_1710,piloto1,2020.2.5,59.86507609165064,
1000,0.0,imagenes/Nutella (1).jpg,0.8826531883338111,None,0,3,3,3,0,10,10,12,,,192.99681220999955,193.99689609999768,193.99689609999768,None,3.4348958333333335,1.354606100001547,193.99689609999768,None,,,,,,,,,q,001,2020_Dec_01_1710,piloto1,2020.2.5,59.86507609165064,
1000,0.0,imagenes/Croissant.jpg,0.5824748589948932,None,0,3,3,3,0,11,11,5,,,194.41315672999806,None,195.39643269999942,None,3.4348958333333335,1.1640082000012626,195.39643269999942,None,,,,,,,,,q,001,2020_Dec_01_1710,piloto1,2020.2.5,59.86507609165064,
1000,0.0,imagenes/Kiwi.jpg,0.3929145850942286,None,0,3,3,3,0,12,12,8,,,195.5965735099995,196.5966644,196.58005129999947,None,3.4348958333333335,1.3947788000004948,196.58005129999947,None,,,,,,,,,q,001,2020_Dec_01_1710,piloto1,2020.2.5,59.86507609165064,
1000,0.0,imagenes/Papas picantes.jpg,0.524978898672612,None,0,3,3,3,0,13,13,27,,,197.01319110999938,None,197.99646219999704,None,3.4348958333333335,1.3470288000025903,197.99646219999704,None,,,,,,,,,q,001,2020_Dec_01_1710,piloto1,2020.2.5,59.86507609165064,
1000,0.0,imagenes/Banano.jpeg,0.2267656716538785,None,0,3,3,3,0,14,14,1,,,198.39666782000057,None,199.36321929999758,None,3.4348958333333335,1.4354984999990847,199.36321929999758,None,,,,,,,,,q,001,2020_Dec_01_1710,piloto1,2020.2.5,59.86507609165064,
1000,0.0,imagenes/salchicha hojaldrada.jpg,0.7119773165481526,None,0,3,3,3,0,15,15,35,,,199.84680531000012,200.84659669999746,200.82986119999987,None,3.4348958333333335,1.2298898999979428,200.82986119999987,None,,,,,,,,,q,001,2020_Dec_01_1710,piloto1,2020.2.5,59.86507609165064,
1000,0.0,imagenes/Pizza.png,0.21192443516553439,None,0,3,3,3,0,16,16,31,,,201.09670691000028,202.0964217999972,202.0964217999972,None,3.4348958333333335,1.4037579000032565,202.0964217999972,None,,,,,,,,,q,001,2020_Dec_01_1710,piloto1,2020.2.5,59.86507609165064,
1000,0.0,imagenes/Alpinito.jpg,0.7416150880621702,None,0,3,3,3,0,17,17,0,,,202.5794388399976,203.5799956999981,203.56346979999944,None,3.4348958333333335,1.4183292000016081,203.56346979999944,None,,,,,,,,,q,001,2020_Dec_01_1710,piloto1,2020.2.5,59.86507609165064,
1000,0.0,imagenes/Galletas-festival.jpg,0.11306074364032936,None,0,3,3,3,0,18,18,7,,,204.02935541999904,205.02999519999867,205.01300419999825,None,3.4348958333333335,1.4135341999972297,205.01300419999825,None,,,,,,,,,q,001,2020_Dec_01_1710,piloto1,2020.2.5,59.86507609165064,
1000,0.0,imagenes/Popetas.jpg,0.9621625733302204,None,0,3,3,3,0,19,19,16,,,205.4958840299976,None,206.47977739999988,None,3.4348958333333335,1.5986818999990646,206.47977739999988,None,,,,,,,,,q,001,2020_Dec_01_1710,piloto1,2020.2.5,59.86507609165064,
1000,0.0,imagenes/Chocoramo.jfif.jpg,0.7425528559884101,None,0,3,3,3,0,20,20,4,,,207.14609902999908,208.14594759999818,208.12974229999963,None,3.4348958333333335,1.611576300001616,208.12974229999963,None,,,,,,,,,q,001,2020_Dec_01_1710,piloto1,2020.2.5,59.86507609165064,
1000,0.0,imagenes/Pizzetas.png,0.3295951589873042,None,0,3,3,3,0,21,21,32,,,208.79629241999936,209.7960843999972,209.7960843999972,None,3.4348958333333335,1.4209396000005654,209.7960843999972,None,,,,,,,,,q,001,2020_Dec_01_1710,piloto1,2020.2.5,59.86507609165064,
1000,0.0,imagenes/Pepinillos.png,0.0038966441241518046,None,0,3,3,3,0,22,22,28,,,210.26284221999884,211.26285749999806,211.26285749999806,None,3.4348958333333335,1.3753847000007227,211.26285749999806,None,,,,,,,,,q,001,2020_Dec_01_1710,piloto1,2020.2.5,59.86507609165064,
1000,0.0,imagenes/Chontaduro.png,0.8693553300418813,None,0,3,3,3,0,23,23,23,,,211.66256260999907,None,212.66264519999822,None,3.4348958333333335,1.3038569999989704,212.66264519999822,None,,,,,,,,,q,001,2020_Dec_01_1710,piloto1,2020.2.5,59.86507609165064,
1000,0.0,imagenes/Leche-de-almendras.jpg,0.3886559457994673,None,0,3,3,3,0,24,24,9,,,213.06282874999852,214.06265589999748,214.06265589999748,None,3.4348958333333335,1.4202392999977747,214.06265589999748,None,,,,,,,,,q,001,2020_Dec_01_1710,piloto1,2020.2.5,59.86507609165064,
1000,0.0,imagenes/Pescadito.png,0.7172825011486081,None,0,3,3,3,0,25,25,29,,,214.52893251999848,None,215.5123915999975,None,3.4348958333333335,1.3801889999995183,215.5123915999975,None,,,,,,,,,q,001,2020_Dec_01_1710,piloto1,2020.2.5,59.86507609165064,
1000,0.0,imagenes/Papas-naturales.jpg,0.37590629905521566,None,0,3,3,3,0,26,26,13,,,215.92932850999895,216.9291220999985,216.9291220999985,None,3.4348958333333335,1.2375310999996145,216.9291220999985,None,,,,,,,,,q,001,2020_Dec_01_1710,piloto1,2020.2.5,59.86507609165064,
1000,0.0,imagenes/Coliflor.jpg,0.3640740491088985,None,0,3,3,3,0,27,27,24,,,217.19534810999866,None,218.1953328999989,None,3.4348958333333335,1.4596644999983255,218.1953328999989,None,,,,,,,,,q,001,2020_Dec_01_1710,piloto1,2020.2.5,59.86507609165064,
1000,0.0,imagenes/Manzana.jpg,0.4048420327008191,None,0,3,3,3,0,28,28,11,,,218.6955227199971,219.6954184999995,219.6954184999995,None,3.4348958333333335,1.3241455999996106,219.6954184999995,None,,,,,,,,,q,001,2020_Dec_01_1710,piloto1,2020.2.5,59.86507609165064,
1000,0.0,imagenes/Galletas Tosh.jpg,0.9129693753280027,None,0,3,3,3,0,29,29,6,,,220.06247811999782,221.06228199999896,221.06228199999896,None,2.868489583333333,1.4573855999988155,221.06228199999896,None,,,,,,,,,q,001,2020_Dec_01_1710,piloto1,2020.2.5,59.86507609165064,
1000,0.0,imagenes/bon-bon-bun.jpg,0.7417452724056987,None,0,3,3,3,0,30,30,2,,,221.5786529299974,222.57862069999828,222.56234369999947,None,2.50390625,1.0804657000007865,222.56234369999947,None,,,,,,,,,q,001,2020_Dec_01_1710,piloto1,2020.2.5,59.86507609165064,
1000,0.0,imagenes/Mango.jpeg,0.4341155418941499,None,0,3,3,3,0,31,31,10,,,222.71206493000025,None,223.69693939999706,None,2.46484375,1.3517537000006996,223.69693939999706,None,,,,,,,,,q,001,2020_Dec_01_1710,piloto1,2020.2.5,59.86507609165064,
1000,0.0,imagenes/Almojabanas.png,0.6725051200713246,None,0,3,3,3,0,32,32,20,,,224.0954987199977,225.09523379999882,225.09523379999882,None,2.2369791666666665,1.2377100999983668,225.09523379999882,None,,,,,,,,,q,001,2020_Dec_01_1710,piloto1,2020.2.5,59.86507609165064,
1000,0.0,imagenes/Canelazo.png,0.6730479360767814,None,0,3,3,3,0,33,33,22,,,225.39515273000032,None,226.39523469999767,None,2.282552083333333,1.0905953000001318,226.39523469999767,None,,,,,,,,,q,001,2020_Dec_01_1710,piloto1,2020.2.5,59.86507609165064,
1000,0.0,imagenes/Papas-limon.jpg,0.5280798509093595,None,0,3,3,3,0,34,34,14,,,226.51182640999795,227.5121541999979,227.5121541999979,None,2.282552083333333,1.058263499999157,227.5121541999979,None,,,,,,,,,q,001,2020_Dec_01_1710,piloto1,2020.2.5,59.86507609165064,
1000,0.0,imagenes/Rollo de queso.png,0.9201641182756888,None,0,3,3,3,0,35,35,33,,,227.6120801200006,None,228.61175169999842,None,2.09375,1.3390283000007912,228.61175169999842,None,,,,,,,,,q,001,2020_Dec_01_1710,piloto1,2020.2.5,59.86507609165064,
1000,0.0,,,,0,3,3,3,,,,,,,,,,,,,,,,,,,,,,,q,001,2020_Dec_01_1710,piloto1,2020.2.5,59.86507609165064,
,,,,,,,,,,,,,,,,,,,,,,,228.97901149999961,None,229.97894349999842,None,230.9960917999997,None,231.99839639999846,None,,,,,,,
