Hertz,volumen,Imagenes,Random,Correcto,trials.thisRepN,trials.thisTrialN,trials.thisN,trials.thisIndex,trials_2.thisRepN,trials_2.thisTrialN,trials_2.thisN,trials_2.thisIndex,sound_3.started,sound_3.stopped,Sonido.started,Sonido.stopped,image_2.started,image_2.stopped,slider_2.response,slider_2.rt,slider_2.started,slider_2.stopped,text_2.started,text_2.stopped,text_3.started,text_3.stopped,text.started,text.stopped,text_4.started,text_4.stopped,image.started,image.stopped,texto_final.started,texto_final.stopped,participant,session,date,expName,psychopyVersion,frameRate,
1000,0.02,imagenes/Leche-de-almendras.jpg,0.3886559457994673,None,0,0,0,2,0,0,0,9,9.111908399996537,None,19.29364883999915,None,20.33282920000056,None,None,None,20.33282920000056,None,,,,,,,,,,,,,q,001,2020_Dec_01_1617,piloto1,2020.2.5,59.86317672330543,
1000,0.02,imagenes/Mango.jpeg,0.4341155418941499,None,0,0,0,2,0,1,1,10,,,22.209946879998824,None,23.19295559999955,None,3.3763020833333335,1.6659414999994624,23.19295559999955,None,,,,,,,,,,,,,q,001,2020_Dec_01_1617,piloto1,2020.2.5,59.86317672330543,
1000,0.02,imagenes/bon-bon-bun.jpg,0.7417452724056987,None,0,0,0,2,0,2,2,2,,,23.926753879999524,None,24.91117630000008,None,4.37890625,1.3785359999965294,24.91117630000008,None,,,,,,,,,,,,,q,001,2020_Dec_01_1617,piloto1,2020.2.5,59.86317672330543,
1000,0.02,imagenes/Papas picantes.jpg,0.524978898672612,None,0,0,0,2,0,3,3,27,,,25.32634635999966,26.326586999999563,26.326586999999563,None,4.3984375,1.3737880000007863,26.326586999999563,None,,,,,,,,,,,,,q,001,2020_Dec_01_1617,piloto1,2020.2.5,59.86317672330543,
1000,0.02,imagenes/Papas-limon.jpg,0.5280798509093595,None,0,0,0,2,0,4,4,14,,,26.726308459999927,27.726232299999538,27.726232299999538,None,3.884114583333333,1.4379730999971798,27.726232299999538,None,,,,,,,,,,,,,q,001,2020_Dec_01_1617,piloto1,2020.2.5,59.86317672330543,
1000,0.02,imagenes/Pizzetas.png,0.3295951589873042,None,0,0,0,2,0,5,5,32,,,28.209326619999047,None,29.193098899999313,None,3.584635416666667,1.430917200003023,29.193098899999313,None,,,,,,,,,,,,,q,001,2020_Dec_01_1617,piloto1,2020.2.5,59.86317672330543,
1000,0.02,imagenes/Pizza.png,0.21192443516553439,None,0,0,0,2,0,6,6,31,,,29.676141619998816,30.67753939999966,30.64391020000039,None,3.942708333333333,1.5367138000001432,30.64391020000039,None,,,,,,,,,,,,,q,001,2020_Dec_01_1617,piloto1,2020.2.5,59.86317672330543,
1000,0.02,imagenes/pistachos.jpg,0.7450869742741464,None,0,0,0,2,0,7,7,30,,,31.227592760000334,None,32.21130289999928,None,4.483072916666667,1.446781499998906,32.21130289999928,None,,,,,,,,,,,,,q,001,2020_Dec_01_1617,piloto1,2020.2.5,59.86317672330543,
1000,0.02,imagenes/Popetas.jpg,0.9621625733302204,None,0,0,0,2,0,8,8,16,,,32.72730268000123,None,33.726104000001214,None,3.721354166666667,1.6563165000006848,33.726104000001214,None,,,,,,,,,,,,,q,001,2020_Dec_01_1617,piloto1,2020.2.5,59.86317672330543,
1000,0.02,imagenes/Coliflor.jpg,0.3640740491088985,None,0,0,0,2,0,9,9,24,,,34.40900136000164,35.40913720000026,35.40913720000026,None,2.510416666666667,1.3736559999997553,35.40913720000026,None,,,,,,,,,,,,,q,001,2020_Dec_01_1617,piloto1,2020.2.5,59.86317672330543,
1000,0.02,imagenes/salchicha hojaldrada.jpg,0.7119773165481526,None,0,0,0,2,0,10,10,35,,,35.809133659999134,36.80901740000263,36.80901740000263,None,3.591145833333333,1.4778987000026973,36.80901740000263,None,,,,,,,,,,,,,q,001,2020_Dec_01_1617,piloto1,2020.2.5,59.86317672330543,
1000,0.02,imagenes/Pepinillos.png,0.0038966441241518046,None,0,0,0,2,0,11,11,28,,,37.325892420001765,38.32625840000037,38.32625840000037,None,3.2265625,1.6081059000025562,38.32625840000037,None,,,,,,,,,,,,,q,001,2020_Dec_01_1617,piloto1,2020.2.5,59.86317672330543,
1000,0.02,imagenes/Almojabanas.png,0.6725051200713246,None,0,0,0,2,0,12,12,20,,,38.992374579998796,None,39.975625499999296,None,3.1809895833333335,1.302178099998855,39.975625499999296,None,,,,,,,,,,,,,q,001,2020_Dec_01_1617,piloto1,2020.2.5,59.86317672330543,
1000,0.02,imagenes/Rosquitas (1).jpg,0.024090340010977873,None,0,0,0,2,0,13,13,17,,,40.34233728000072,None,41.32573920000141,None,2.595052083333333,1.2175000000024738,41.32573920000141,None,,,,,,,,,,,,,q,001,2020_Dec_01_1617,piloto1,2020.2.5,59.86317672330543,
1000,0.02,imagenes/Uvas.jpg,0.4959291644143431,None,0,0,0,2,0,14,14,19,,,41.59258142000181,None,42.57552009999927,None,3.682291666666667,2.3342531000016606,42.57552009999927,None,,,,,,,,,,,,,q,001,2020_Dec_01_1617,piloto1,2020.2.5,59.86317672330543,
1000,0.02,imagenes/Chontaduro.png,0.8693553300418813,None,0,0,0,2,0,15,15,23,,,43.94237316000181,44.94231810000201,44.94231810000201,None,4.131510416666667,1.2702105999997002,44.94231810000201,None,,,,,,,,,,,,,q,001,2020_Dec_01_1617,piloto1,2020.2.5,59.86317672330543,
1000,0.02,imagenes/Galletas Tosh.jpg,0.9129693753280027,None,0,0,0,2,0,16,16,6,,,45.25860212000043,46.2588977000014,46.2588977000014,None,4.131510416666667,1.4592052000007243,46.2588977000014,None,,,,,,,,,,,,,q,001,2020_Dec_01_1617,piloto1,2020.2.5,59.86317672330543,
1000,0.02,imagenes/Rollos de canela.png,0.2610974409574519,None,0,0,0,2,0,17,17,34,,,46.7590458199993,None,47.74188140000115,None,3.0963541666666665,1.2995362000001478,47.74188140000115,None,,,,,,,,,,,,,q,001,2020_Dec_01_1617,piloto1,2020.2.5,59.86317672330543,
1000,0.02,imagenes/Yogurt-alpina.jpg,0.5445152936222175,None,0,0,0,2,0,18,18,18,,,48.091959019999194,None,49.05868470000132,None,2.497395833333333,1.2191757999971742,49.05868470000132,None,,,,,,,,,,,,,q,001,2020_Dec_01_1617,piloto1,2020.2.5,59.86317672330543,
1000,0.02,imagenes/Croissant.jpg,0.5824748589948932,None,0,0,0,2,0,19,19,5,,,49.358563880001384,None,50.35846909999964,None,3.591145833333333,1.3429513999981282,50.35846909999964,None,,,,,,,,,,,,,q,001,2020_Dec_01_1617,piloto1,2020.2.5,59.86317672330543,
1000,0.02,imagenes/Nutella (1).jpg,0.8826531883338111,None,0,0,0,2,0,20,20,12,,,50.72512626000207,51.725433200001135,51.725433200001135,None,4.365885416666667,1.2375002999979188,51.725433200001135,None,,,,,,,,,,,,,q,001,2020_Dec_01_1617,piloto1,2020.2.5,59.86317672330543,
1000,0.02,imagenes/Pescadito.png,0.7172825011486081,None,0,0,0,2,0,21,21,29,,,52.00847452000016,None,52.99171639999986,None,4.96484375,2.013811299999361,52.99171639999986,None,,,,,,,,,,,,,q,001,2020_Dec_01_1617,piloto1,2020.2.5,59.86317672330543,
1000,0.02,imagenes/Brownie.jpg,0.2838924074864093,None,0,0,0,2,0,22,22,3,,,54.07504267999866,55.074952400002076,55.05854940000063,None,5.114583333333334,2.2954107000005024,55.05854940000063,None,,,,,,,,,,,,,q,001,2020_Dec_01_1617,piloto1,2020.2.5,59.86317672330543,
1000,0.02,imagenes/Muffin de banano.png,0.9610615059009696,None,0,0,0,2,0,23,23,25,,,56.44180104000043,None,57.42480830000204,None,4.73046875,2.552809900000284,57.42480830000204,None,,,,,,,,,,,,,q,001,2020_Dec_01_1617,piloto1,2020.2.5,59.86317672330543,
1000,0.02,imagenes/Kiwi.jpg,0.3929145850942286,None,0,0,0,2,0,24,24,8,,,59.00802766000015,None,60.008119400001306,None,4.02734375,1.0092851000008523,60.008119400001306,None,,,,,,,,,,,,,q,001,2020_Dec_01_1617,piloto1,2020.2.5,59.86317672330543,
1000,0.02,imagenes/Rollo de queso.png,0.9201641182756888,None,0,0,0,2,0,25,25,33,,,60.058411419999175,61.05806080000184,61.05806080000184,None,3.591145833333333,1.1390071000023454,61.05806080000184,None,,,,,,,,,,,,,q,001,2020_Dec_01_1617,piloto1,2020.2.5,59.86317672330543,
1000,0.02,imagenes/Banano.jpeg,0.2267656716538785,None,0,0,0,2,0,26,26,1,,,61.24138311999923,None,62.2244697999995,None,3.591145833333333,1.3687847000001057,62.2244697999995,None,,,,,,,,,,,,,q,001,2020_Dec_01_1617,piloto1,2020.2.5,59.86317672330543,
1000,0.02,imagenes/Brocoli.jpg,0.24293074945529525,None,0,0,0,2,0,27,27,21,,,62.624933760000204,63.62483550000252,63.608050700000604,None,3.3958333333333335,1.7766988999974274,63.608050700000604,None,,,,,,,,,,,,,q,001,2020_Dec_01_1617,piloto1,2020.2.5,59.86317672330543,
1000,0.02,imagenes/Alpinito.jpg,0.7416150880621702,None,0,0,0,2,0,28,28,0,,,64.45820438000192,None,65.44095070000185,None,3.3958333333333335,1.2841341999992437,65.44095070000185,None,,,,,,,,,,,,,q,001,2020_Dec_01_1617,piloto1,2020.2.5,59.86317672330543,
1000,0.02,imagenes/Galletas-festival.jpg,0.11306074364032936,None,0,0,0,2,0,29,29,7,,,65.77439951999986,66.77423700000145,66.75785639999958,None,3.2591145833333335,1.694960799999535,66.75785639999958,None,,,,,,,,,,,,,q,001,2020_Dec_01_1617,piloto1,2020.2.5,59.86317672330543,
1000,0.02,imagenes/Papas-naturales.jpg,0.37590629905521566,None,0,0,0,2,0,30,30,13,,,67.49077306000072,68.49062970000159,68.49062970000159,None,3.1875,1.5046339000000444,68.49062970000159,None,,,,,,,,,,,,,q,001,2020_Dec_01_1617,piloto1,2020.2.5,59.86317672330543,
1000,0.02,imagenes/Papas-pollo.jpg,0.08373485417902837,None,0,0,0,2,0,31,31,15,,,69.02459306000128,70.0240260999999,70.0240260999999,None,3.91015625,1.355415300000459,70.0240260999999,None,,,,,,,,,,,,,q,001,2020_Dec_01_1617,piloto1,2020.2.5,59.86317672330543,
1000,0.02,imagenes/Manzana.jpg,0.4048420327008191,None,0,0,0,2,0,32,32,11,,,70.4239701200022,None,71.423949,None,3.1875,1.4094096999979229,71.423949,None,,,,,,,,,,,,,q,001,2020_Dec_01_1617,piloto1,2020.2.5,59.86317672330543,
1000,0.02,imagenes/Chocoramo.jfif.jpg,0.7425528559884101,None,0,0,0,2,0,33,33,4,,,71.89074187999904,72.89053630000126,72.89053630000126,None,3.760416666666667,1.2257409000012558,72.89053630000126,None,,,,,,,,,,,,,q,001,2020_Dec_01_1617,piloto1,2020.2.5,59.86317672330543,
1000,0.02,imagenes/Canelazo.png,0.6730479360767814,None,0,0,0,2,0,34,34,22,,,73.19062553999902,None,74.15744320000158,None,4.0078125,1.8700922999996692,74.15744320000158,None,,,,,,,,,,,,,q,001,2020_Dec_01_1617,piloto1,2020.2.5,59.86317672330543,
1000,0.02,imagenes/Pandebono.png,0.8988574378129985,None,0,0,0,2,0,35,35,26,,,75.09054061999996,None,76.07393339999908,None,3.630208333333333,1.7448241999991296,76.07393339999908,None,,,,,,,,,,,,,q,001,2020_Dec_01_1617,piloto1,2020.2.5,59.86317672330543,
1000,0.02,,,,0,0,0,2,,,,,,,,,,,,,,,,,,,,,,,,,,,q,001,2020_Dec_01_1617,piloto1,2020.2.5,59.86317672330543,
400,0.02,imagenes/Papas-naturales.jpg,0.37590629905521566,None,0,1,1,0,0,0,0,13,,,76.87393882000106,77.87383899999986,77.87383899999986,None,3.0247395833333335,1.539893300003314,77.87383899999986,None,,,,,,,,,,,,,q,001,2020_Dec_01_1617,piloto1,2020.2.5,59.86317672330543,
400,0.02,imagenes/Almojabanas.png,0.6725051200713246,None,0,1,1,0,0,1,1,20,,,78.45690082000147,None,79.44013059999997,None,3.2981770833333335,1.4303065999993123,79.44013059999997,None,,,,,,,,,,,,,q,001,2020_Dec_01_1617,piloto1,2020.2.5,59.86317672330543,
400,0.02,imagenes/Banano.jpeg,0.2267656716538785,None,0,1,1,0,0,2,2,1,,,79.92354752000028,None,80.90776499999993,None,3.51953125,1.6337650999994366,80.90776499999993,None,,,,,,,,,,,,,q,001,2020_Dec_01_1617,piloto1,2020.2.5,59.86317672330543,
400,0.02,imagenes/Croissant.jpg,0.5824748589948932,None,0,1,1,0,0,3,3,5,,,81.60718538000037,None,82.59013580000101,None,2.393229166666667,1.384775599999557,82.59013580000101,None,,,,,,,,,,,,,q,001,2020_Dec_01_1617,piloto1,2020.2.5,59.86317672330543,
400,0.02,imagenes/Coliflor.jpg,0.3640740491088985,None,0,1,1,0,0,4,4,24,,,83.00665585999923,84.00687730000209,84.00687730000209,None,2.432291666666667,1.5403460999987146,84.00687730000209,None,,,,,,,,,,,,,q,001,2020_Dec_01_1617,piloto1,2020.2.5,59.86317672330543,
400,0.02,imagenes/Muffin de banano.png,0.9610615059009696,None,0,1,1,0,0,5,5,25,,,84.60671018000176,85.60652649999975,85.60652649999975,None,2.1328125,1.3033572000022104,85.60652649999975,None,,,,,,,,,,,,,q,001,2020_Dec_01_1617,piloto1,2020.2.5,59.86317672330543,
400,0.02,imagenes/Yogurt-alpina.jpg,0.5445152936222175,None,0,1,1,0,0,6,6,18,,,85.95665631999873,86.95702370000072,86.94021260000227,None,2.7578125,1.2676358000026084,86.94021260000227,None,,,,,,,,,,,,,q,001,2020_Dec_01_1617,piloto1,2020.2.5,59.86317672330543,
400,0.02,imagenes/Rosquitas (1).jpg,0.024090340010977873,None,0,1,1,0,0,7,7,17,,,87.25658842000121,88.25638049999907,88.25638049999907,None,2.8815104166666665,1.4914007000006677,88.25638049999907,None,,,,,,,,,,,,,q,001,2020_Dec_01_1617,piloto1,2020.2.5,59.86317672330543,
400,0.02,imagenes/Leche-de-almendras.jpg,0.3886559457994673,None,0,1,1,0,0,8,8,9,,,88.87349272000029,89.87307650000002,89.87307650000002,None,3.01171875,1.504651000002923,89.87307650000002,None,,,,,,,,,,,,,q,001,2020_Dec_01_1617,piloto1,2020.2.5,59.86317672330543,
400,0.02,imagenes/Rollos de canela.png,0.2610974409574519,None,0,1,1,0,0,9,9,34,,,90.40624865999962,91.40635739999925,91.40635739999925,None,2.822916666666667,1.723337999999785,91.40635739999925,None,,,,,,,,,,,,,q,001,2020_Dec_01_1617,piloto1,2020.2.5,59.86317672330543,
400,0.02,imagenes/Mango.jpeg,0.4341155418941499,None,0,1,1,0,0,10,10,10,,,92.17312211999888,93.1733376000011,93.15660800000114,None,2.490885416666667,2.6311262999988685,93.15660800000114,None,,,,,,,,,,,,,q,001,2020_Dec_01_1617,piloto1,2020.2.5,59.86317672330543,
400,0.02,imagenes/Canelazo.png,0.6730479360767814,None,0,1,1,0,0,11,11,22,,,94.85653098000148,95.85622499999954,95.83949800000119,None,3.2721354166666665,1.4616120999999112,95.83949800000119,None,,,,,,,,,,,,,q,001,2020_Dec_01_1617,piloto1,2020.2.5,59.86317672330543,
400,0.02,imagenes/Chontaduro.png,0.8693553300418813,None,0,1,1,0,0,12,12,23,,,96.35656902000119,None,97.33956770000077,None,2.89453125,1.6514882999981637,97.33956770000077,None,,,,,,,,,,,,,q,001,2020_Dec_01_1617,piloto1,2020.2.5,59.86317672330543,
400,0.02,imagenes/Papas-limon.jpg,0.5280798509093595,None,0,1,1,0,0,13,13,14,,,98.02264476000164,None,99.02259870000125,None,2.77734375,1.5741287999990163,99.02259870000125,None,,,,,,,,,,,,,q,001,2020_Dec_01_1617,piloto1,2020.2.5,59.86317672330543,
400,0.02,imagenes/Rollo de queso.png,0.9201641182756888,None,0,1,1,0,0,14,14,33,,,99.63957791999928,100.63938659999985,100.63938659999985,None,2.9596354166666665,2.1550029999998515,100.63938659999985,None,,,,,,,,,,,,,q,001,2020_Dec_01_1617,piloto1,2020.2.5,59.86317672330543,
400,0.02,imagenes/Pescadito.png,0.7172825011486081,None,0,1,1,0,0,15,15,29,,,101.8392581199987,None,102.82262769999943,None,4.131510416666667,2.2010354999983974,102.82262769999943,None,,,,,,,,,,,,,q,001,2020_Dec_01_1617,piloto1,2020.2.5,59.86317672330543,
400,0.02,imagenes/Papas-pollo.jpg,0.08373485417902837,None,0,1,1,0,0,16,16,15,,,104.05588376000196,105.05572369999936,105.05572369999936,None,3.3372395833333335,1.6896597999984806,105.05572369999936,None,,,,,,,,,,,,,q,001,2020_Dec_01_1617,piloto1,2020.2.5,59.86317672330543,
400,0.02,imagenes/Chocoramo.jfif.jpg,0.7425528559884101,None,0,1,1,0,0,17,17,4,,,105.8062369800009,None,106.78899620000084,None,4.255208333333333,1.6004926999994495,106.78899620000084,None,,,,,,,,,,,,,q,001,2020_Dec_01_1617,piloto1,2020.2.5,59.86317672330543,
400,0.02,imagenes/Kiwi.jpg,0.3929145850942286,None,0,1,1,0,0,18,18,8,,,107.42232286000035,108.42229900000166,108.42229900000166,None,None,None,108.42229900000166,None,,,,,,,,,,,,,q,001,2020_Dec_01_1617,piloto1,2020.2.5,59.86317672330543,
400,0.02,imagenes/bon-bon-bun.jpg,0.7417452724056987,None,0,1,1,0,0,19,19,2,,,110.43874492000032,None,111.42218100000173,110.43287520000013,None,None,111.42218100000173,110.43287520000013,,,,,,,,,,,,,q,001,2020_Dec_01_1617,piloto1,2020.2.5,59.86317672330543,
400,0.02,imagenes/Nutella (1).jpg,0.8826531883338111,None,0,1,1,0,0,20,20,12,,,113.43877952000184,None,114.40560109999933,113.4267013000026,3.3763020833333335,2.220038999999815,114.40560109999933,113.4267013000026,,,,,,,,,,,,,q,001,2020_Dec_01_1617,piloto1,2020.2.5,59.86317672330543,
400,0.02,imagenes/Alpinito.jpg,0.7416150880621702,None,0,1,1,0,0,21,21,0,,,115.70518238000113,116.70543600000019,116.70543600000019,None,3.6953125,1.6860023000008368,116.70543600000019,None,,,,,,,,,,,,,q,001,2020_Dec_01_1617,piloto1,2020.2.5,59.86317672330543,
400,0.02,imagenes/Popetas.jpg,0.9621625733302204,None,0,1,1,0,0,22,22,16,,,117.43855482000072,None,118.43863010000132,None,4.37890625,1.3862659000005806,118.43863010000132,None,,,,,,,,,,,,,q,001,2020_Dec_01_1617,piloto1,2020.2.5,59.86317672330543,
400,0.02,imagenes/Brownie.jpg,0.2838924074864093,None,0,1,1,0,0,23,23,3,,,118.88859537999997,None,119.87378159999935,None,3.662760416666667,1.8810253999981796,119.87378159999935,None,,,,,,,,,,,,,q,001,2020_Dec_01_1617,piloto1,2020.2.5,59.86317672330543,
400,0.02,imagenes/Pandebono.png,0.8988574378129985,None,0,1,1,0,0,24,24,26,,,120.80503522000072,121.80499190000046,121.80499190000046,None,4.30078125,1.138645600000018,121.80499190000046,None,,,,,,,,,,,,,q,001,2020_Dec_01_1617,piloto1,2020.2.5,59.86317672330543,
400,0.02,imagenes/Manzana.jpg,0.4048420327008191,None,0,1,1,0,0,25,25,11,,,122.00523287999931,123.00513470000078,122.98874250000154,None,4.69140625,1.8776127000019187,122.98874250000154,None,,,,,,,,,,,,,q,001,2020_Dec_01_1617,piloto1,2020.2.5,59.86317672330543,
400,0.02,imagenes/Galletas Tosh.jpg,0.9129693753280027,None,0,1,1,0,0,26,26,6,,,123.92178852000143,124.92171310000049,124.92171310000049,None,3.4739583333333335,1.3931592000008095,124.92171310000049,None,,,,,,,,,,,,,q,001,2020_Dec_01_1617,piloto1,2020.2.5,59.86317672330543,
400,0.02,imagenes/Papas picantes.jpg,0.524978898672612,None,0,1,1,0,0,27,27,27,,,125.33826765999947,None,126.32130320000215,None,3.4739583333333335,1.1964368000008108,126.32130320000215,None,,,,,,,,,,,,,q,001,2020_Dec_01_1617,piloto1,2020.2.5,59.86317672330543,
400,0.02,imagenes/Pizzetas.png,0.3295951589873042,None,0,1,1,0,0,28,28,32,,,126.57186962000196,127.5713906000019,127.55749510000169,None,3.4739583333333335,1.4962806000003184,127.55749510000169,None,,,,,,,,,,,,,q,001,2020_Dec_01_1617,piloto1,2020.2.5,59.86317672330543,
400,0.02,imagenes/Pepinillos.png,0.0038966441241518046,None,0,1,1,0,0,29,29,28,,,128.10468032000063,129.10494010000184,129.10494010000184,None,3.740885416666667,1.376681700003246,129.10494010000184,None,,,,,,,,,,,,,q,001,2020_Dec_01_1617,piloto1,2020.2.5,59.86317672330543,
400,0.02,imagenes/Pizza.png,0.21192443516553439,None,0,1,1,0,0,30,30,31,,,129.52183091999905,None,130.50459670000055,None,3.2981770833333335,1.7185625000020082,130.50459670000055,None,,,,,,,,,,,,,q,001,2020_Dec_01_1617,piloto1,2020.2.5,59.86317672330543,
400,0.02,imagenes/pistachos.jpg,0.7450869742741464,None,0,1,1,0,0,31,31,30,,,131.2549855599991,132.25456209999902,132.23791020000135,None,4.30078125,1.397272800000792,132.23791020000135,None,,,,,,,,,,,,,q,001,2020_Dec_01_1617,piloto1,2020.2.5,59.86317672330543,
400,0.02,imagenes/salchicha hojaldrada.jpg,0.7119773165481526,None,0,1,1,0,0,32,32,35,,,132.67120525999962,133.67091900000014,133.65428769999926,None,3.662760416666667,1.2472802999982378,133.65428769999926,None,,,,,,,,,,,,,q,001,2020_Dec_01_1617,piloto1,2020.2.5,59.86317672330543,
400,0.02,imagenes/Galletas-festival.jpg,0.11306074364032936,None,0,1,1,0,0,33,33,7,,,133.95446712000194,134.9548023999996,134.93792609999946,None,4.235677083333333,1.3299014999975043,134.93792609999946,None,,,,,,,,,,,,,q,001,2020_Dec_01_1617,piloto1,2020.2.5,59.86317672330543,
400,0.02,imagenes/Uvas.jpg,0.4959291644143431,None,0,1,1,0,0,34,34,19,,,135.32128852000096,None,136.3045368000021,None,3.662760416666667,1.2688595999970858,136.3045368000021,None,,,,,,,,,,,,,q,001,2020_Dec_01_1617,piloto1,2020.2.5,59.86317672330543,
400,0.02,imagenes/Brocoli.jpg,0.24293074945529525,None,0,1,1,0,0,35,35,21,,,136.60448695999912,137.60437500000262,137.60437500000262,None,2.712239583333333,1.3930094999996072,137.60437500000262,None,,,,,,,,,,,,,q,001,2020_Dec_01_1617,piloto1,2020.2.5,59.86317672330543,
400,0.02,,,,0,1,1,0,,,,,,,,,,,,,,,,,,,,,,,,,,,q,001,2020_Dec_01_1617,piloto1,2020.2.5,59.86317672330543,
1500,0.02,imagenes/Banano.jpeg,0.2267656716538785,None,0,2,2,1,0,0,0,1,,,138.08776240000043,None,139.0875589999996,None,2.822916666666667,1.5060464999987744,139.0875589999996,None,,,,,,,,,,,,,q,001,2020_Dec_01_1617,piloto1,2020.2.5,59.86317672330543,
1500,0.02,imagenes/Kiwi.jpg,0.3929145850942286,None,0,2,2,1,0,1,1,8,,,139.6211987600018,140.62098510000214,140.62098510000214,None,3.623697916666667,1.458544900000561,140.62098510000214,None,,,,,,,,,,,,,q,001,2020_Dec_01_1617,piloto1,2020.2.5,59.86317672330543,
1500,0.02,imagenes/Leche-de-almendras.jpg,0.3886559457994673,None,0,2,2,1,0,2,2,9,,,141.17096520000086,142.1707862000003,142.1707862000003,None,3.805989583333333,1.2551216000028944,142.1707862000003,None,,,,,,,,,,,,,q,001,2020_Dec_01_1617,piloto1,2020.2.5,59.86317672330543,
1500,0.02,imagenes/pistachos.jpg,0.7450869742741464,None,0,2,2,1,0,3,3,30,,,142.45449116000054,143.4543905999999,143.43800330000158,None,4.020833333333333,1.1289678000030108,143.43800330000158,None,,,,,,,,,,,,,q,001,2020_Dec_01_1617,piloto1,2020.2.5,59.86317672330543,
1500,0.02,imagenes/Rollos de canela.png,0.2610974409574519,None,0,2,2,1,0,4,4,34,,,143.62113302000216,None,144.60403869999936,None,3.44140625,1.3149059999996098,144.60403869999936,None,,,,,,,,,,,,,q,001,2020_Dec_01_1617,piloto1,2020.2.5,59.86317672330543,
1500,0.02,imagenes/Canelazo.png,0.6730479360767814,None,0,2,2,1,0,5,5,22,,,144.98757487999865,145.9876605999998,145.9876605999998,None,4.177083333333333,1.3598235999997996,145.9876605999998,None,,,,,,,,,,,,,q,001,2020_Dec_01_1617,piloto1,2020.2.5,59.86317672330543,
1500,0.02,imagenes/Mango.jpeg,0.4341155418941499,None,0,2,2,1,0,6,6,10,,,146.38727952000045,None,147.3730116000006,None,3.0182291666666665,1.3818443000018306,147.3730116000006,None,,,,,,,,,,,,,q,001,2020_Dec_01_1617,piloto1,2020.2.5,59.86317672330543,
1500,0.02,imagenes/Uvas.jpg,0.4959291644143431,None,0,2,2,1,0,7,7,19,,,147.80390162000185,None,148.78730580000047,None,3.799479166666667,1.1524034999965806,148.78730580000047,None,,,,,,,,,,,,,q,001,2020_Dec_01_1617,piloto1,2020.2.5,59.86317672330543,
1500,0.02,imagenes/salchicha hojaldrada.jpg,0.7119773165481526,None,0,2,2,1,0,8,8,35,,,148.97047005999957,149.97028730000238,149.9540405000007,None,3.610677083333333,1.4473251000017626,149.9540405000007,None,,,,,,,,,,,,,q,001,2020_Dec_01_1617,piloto1,2020.2.5,59.86317672330543,
1500,0.02,imagenes/bon-bon-bun.jpg,0.7417452724056987,None,0,2,2,1,0,9,9,2,,,150.4536903199987,151.45385299999907,151.45385299999907,None,2.97265625,1.4420829999980924,151.45385299999907,None,,,,,,,,,,,,,q,001,2020_Dec_01_1617,piloto1,2020.2.5,59.86317672330543,
1500,0.02,imagenes/Papas picantes.jpg,0.524978898672612,None,0,2,2,1,0,10,10,27,,,151.92042726000182,None,152.90957100000014,None,3.4869791666666665,1.411660000001575,152.90957100000014,None,,,,,,,,,,,,,q,001,2020_Dec_01_1617,piloto1,2020.2.5,59.86317672330543,
1500,0.02,imagenes/Nutella (1).jpg,0.8826531883338111,None,0,2,2,1,0,11,11,12,,,153.3539545600015,154.3536426999999,154.3536426999999,None,3.51953125,2.2036901999999827,154.3536426999999,None,,,,,,,,,,,,,q,001,2020_Dec_01_1617,piloto1,2020.2.5,59.86317672330543,
1500,0.02,imagenes/Pescadito.png,0.7172825011486081,None,0,2,2,1,0,12,12,29,,,155.60351671999888,156.60366360000262,156.58694470000046,None,3.0052083333333335,1.248524800001178,156.58694470000046,None,,,,,,,,,,,,,q,001,2020_Dec_01_1617,piloto1,2020.2.5,59.86317672330543,
1500,0.02,imagenes/Chontaduro.png,0.8693553300418813,None,0,2,2,1,0,13,13,23,,,156.88684651999938,157.88714710000204,157.85339360000216,None,2.848958333333333,1.486543700000766,157.85339360000216,None,,,,,,,,,,,,,q,001,2020_Dec_01_1617,piloto1,2020.2.5,59.86317672330543,
1500,0.02,imagenes/Brownie.jpg,0.2838924074864093,None,0,2,2,1,0,14,14,3,,,158.42011227999865,159.42007120000198,159.40325460000167,None,2.875,1.6973060999989684,159.40325460000167,None,,,,,,,,,,,,,q,001,2020_Dec_01_1617,piloto1,2020.2.5,59.86317672330543,
1500,0.02,imagenes/Pepinillos.png,0.0038966441241518046,None,0,2,2,1,0,15,15,28,,,160.17002528000194,None,161.15325809999922,None,3.0442708333333335,0.9991179999997257,161.15325809999922,None,,,,,,,,,,,,,q,001,2020_Dec_01_1617,piloto1,2020.2.5,59.86317672330543,
1500,0.02,imagenes/Pizza.png,0.21192443516553439,None,0,2,2,1,0,16,16,31,,,161.20325312000205,None,162.18661900000006,None,3.513020833333333,1.5521040000021458,162.18661900000006,None,,,,,,,,,,,,,q,001,2020_Dec_01_1617,piloto1,2020.2.5,59.86317672330543,
1500,0.02,imagenes/Yogurt-alpina.jpg,0.5445152936222175,None,0,2,2,1,0,17,17,18,,,162.78674691999913,163.7868421000021,163.76994170000035,None,3.513020833333333,1.2850354000001971,163.76994170000035,None,,,,,,,,,,,,,q,001,2020_Dec_01_1617,piloto1,2020.2.5,59.86317672330543,
1500,0.02,imagenes/Croissant.jpg,0.5824748589948932,None,0,2,2,1,0,18,18,5,,,164.11975358000018,165.1195413000023,165.1195413000023,None,3.9296875,1.277107400001114,165.1195413000023,None,,,,,,,,,,,,,q,001,2020_Dec_01_1617,piloto1,2020.2.5,59.86317672330543,
1500,0.02,imagenes/Muffin de banano.png,0.9610615059009696,None,0,2,2,1,0,19,19,25,,,165.45324408000124,166.4532829000018,166.4532829000018,None,3.9296875,1.3707525999998325,166.4532829000018,None,,,,,,,,,,,,,q,001,2020_Dec_01_1617,piloto1,2020.2.5,59.86317672330543,
1500,0.02,imagenes/Galletas-festival.jpg,0.11306074364032936,None,0,2,2,1,0,20,20,7,,,166.86992721999923,167.8692914000021,167.8692914000021,None,3.0963541666666665,1.4929200000005949,167.8692914000021,None,,,,,,,,,,,,,q,001,2020_Dec_01_1617,piloto1,2020.2.5,59.86317672330543,
1500,0.02,imagenes/Papas-limon.jpg,0.5280798509093595,None,0,2,2,1,0,21,21,14,,,168.38620705999892,169.38592659999995,169.38592659999995,None,3.08984375,1.8383595999985118,169.38592659999995,None,,,,,,,,,,,,,q,001,2020_Dec_01_1617,piloto1,2020.2.5,59.86317672330543,
1500,0.02,imagenes/Pizzetas.png,0.3295951589873042,None,0,2,2,1,0,22,22,32,,,170.25264445999892,171.25291170000128,171.25291170000128,None,3.08984375,1.571371399997588,171.25291170000128,None,,,,,,,,,,,,,q,001,2020_Dec_01_1617,piloto1,2020.2.5,59.86317672330543,
1500,0.02,imagenes/Almojabanas.png,0.6725051200713246,None,0,2,2,1,0,23,23,20,,,171.8694501200007,172.8695351000024,172.8695351000024,None,2.97265625,2.170546800000011,172.8695351000024,None,,,,,,,,,,,,,q,001,2020_Dec_01_1617,piloto1,2020.2.5,59.86317672330543,
1500,0.02,imagenes/Coliflor.jpg,0.3640740491088985,None,0,2,2,1,0,24,24,24,,,174.06905605999964,175.06900909999968,175.06900909999968,None,2.569010416666667,1.441976699999941,175.06900909999968,None,,,,,,,,,,,,,q,001,2020_Dec_01_1617,piloto1,2020.2.5,59.86317672330543,
1500,0.02,imagenes/Papas-pollo.jpg,0.08373485417902837,None,0,2,2,1,0,25,25,15,,,175.53582156000084,176.53611470000033,176.53611470000033,None,3.34375,1.4893487000008463,176.53611470000033,None,,,,,,,,,,,,,q,001,2020_Dec_01_1617,piloto1,2020.2.5,59.86317672330543,
1500,0.02,imagenes/Galletas Tosh.jpg,0.9129693753280027,None,0,2,2,1,0,26,26,6,,,177.06914302000223,None,178.0696566000006,None,3.884114583333333,1.4413632000032521,178.0696566000006,None,,,,,,,,,,,,,q,001,2020_Dec_01_1617,piloto1,2020.2.5,59.86317672330543,
1500,0.02,imagenes/Papas-naturales.jpg,0.37590629905521566,None,0,2,2,1,0,27,27,13,,,178.53582546000143,179.53622449999966,179.53622449999966,None,3.884114583333333,1.3895265999999538,179.53622449999966,None,,,,,,,,,,,,,q,001,2020_Dec_01_1617,piloto1,2020.2.5,59.86317672330543,
1500,0.02,imagenes/Rosquitas (1).jpg,0.024090340010977873,None,0,2,2,1,0,28,28,17,,,179.96937891999914,180.96906630000012,180.96906630000012,None,3.884114583333333,1.65468619999956,180.96906630000012,None,,,,,,,,,,,,,q,001,2020_Dec_01_1617,piloto1,2020.2.5,59.86317672330543,
1500,0.02,imagenes/Popetas.jpg,0.9621625733302204,None,0,2,2,1,0,29,29,16,,,181.70260463999875,None,182.70228490000227,None,4.22265625,1.4751982000016142,182.70228490000227,None,,,,,,,,,,,,,q,001,2020_Dec_01_1617,piloto1,2020.2.5,59.86317672330543,
1500,0.02,imagenes/Alpinito.jpg,0.7416150880621702,None,0,2,2,1,0,30,30,0,,,183.2357814799998,184.23573350000152,184.21888770000078,None,4.216145833333333,1.6164793000025384,184.21888770000078,None,,,,,,,,,,,,,q,001,2020_Dec_01_1617,piloto1,2020.2.5,59.86317672330543,
1500,0.02,imagenes/Brocoli.jpg,0.24293074945529525,None,0,2,2,1,0,31,31,21,,,184.86873616000048,185.86881800000265,185.86881800000265,None,3.40234375,1.2581986999975925,185.86881800000265,None,,,,,,,,,,,,,q,001,2020_Dec_01_1617,piloto1,2020.2.5,59.86317672330543,
1500,0.02,imagenes/Pandebono.png,0.8988574378129985,None,0,2,2,1,0,32,32,26,,,186.16909321999992,None,187.16874739999912,None,2.89453125,1.5608420000025944,187.16874739999912,None,,,,,,,,,,,,,q,001,2020_Dec_01_1617,piloto1,2020.2.5,59.86317672330543,
1500,0.02,imagenes/Manzana.jpg,0.4048420327008191,None,0,2,2,1,0,33,33,11,,,187.7685560200007,188.76863810000214,188.76863810000214,None,2.634114583333333,1.289063399999577,188.76863810000214,None,,,,,,,,,,,,,q,001,2020_Dec_01_1617,piloto1,2020.2.5,59.86317672330543,
1500,0.02,imagenes/Rollo de queso.png,0.9201641182756888,None,0,2,2,1,0,34,34,33,,,189.10226272,None,190.10183340000003,None,3.1614583333333335,1.4047700000010082,190.10183340000003,None,,,,,,,,,,,,,q,001,2020_Dec_01_1617,piloto1,2020.2.5,59.86317672330543,
1500,0.02,imagenes/Chocoramo.jfif.jpg,0.7425528559884101,None,0,2,2,1,0,35,35,4,,,190.5686894800001,191.56845629999953,191.56845629999953,None,3.34375,1.3602377000024717,191.56845629999953,None,,,,,,,,,,,,,q,001,2020_Dec_01_1617,piloto1,2020.2.5,59.86317672330543,
1500,0.02,,,,0,2,2,1,,,,,,,,,,,,,,,,,,,,,,,,,,,q,001,2020_Dec_01_1617,piloto1,2020.2.5,59.86317672330543,
1000,0.0,imagenes/Pepinillos.png,0.0038966441241518046,None,0,3,3,3,0,0,0,28,,,191.98524727999938,192.98512870000195,192.9689051000023,None,3.34375,1.4639926999989257,192.9689051000023,None,,,,,,,,,,,,,q,001,2020_Dec_01_1617,piloto1,2020.2.5,59.86317672330543,
1000,0.0,imagenes/Rosquitas (1).jpg,0.024090340010977873,None,0,3,3,3,0,1,1,17,,,193.48502822000228,194.48515179999958,194.48515179999958,None,2.861979166666667,1.6110820000030799,194.48515179999958,None,,,,,,,,,,,,,q,001,2020_Dec_01_1617,piloto1,2020.2.5,59.86317672330543,
1000,0.0,imagenes/Banano.jpeg,0.2267656716538785,None,0,3,3,3,0,2,2,1,,,195.1349323200011,196.13490110000203,196.1185813000011,None,2.510416666666667,1.5170198999985587,196.1185813000011,None,,,,,,,,,,,,,q,001,2020_Dec_01_1617,piloto1,2020.2.5,59.86317672330543,
1000,0.0,imagenes/Chocoramo.jfif.jpg,0.7425528559884101,None,0,3,3,3,0,3,3,4,,,196.70178227999895,None,197.6850599999998,None,3.2200520833333335,1.3853869999984454,197.6850599999998,None,,,,,,,,,,,,,q,001,2020_Dec_01_1617,piloto1,2020.2.5,59.86317672330543,
1000,0.0,imagenes/Papas-limon.jpg,0.5280798509093595,None,0,3,3,3,0,4,4,14,,,198.10161075999895,None,199.10153150000042,None,3.858072916666667,1.3888556999991124,199.10153150000042,None,,,,,,,,,,,,,q,001,2020_Dec_01_1617,piloto1,2020.2.5,59.86317672330543,
1000,0.0,imagenes/Manzana.jpg,0.4048420327008191,None,0,3,3,3,0,5,5,11,,,199.55135337999855,None,200.53466830000252,None,3.786458333333333,1.43302969999786,200.53466830000252,None,,,,,,,,,,,,,q,001,2020_Dec_01_1617,piloto1,2020.2.5,59.86317672330543,
1000,0.0,imagenes/Muffin de banano.png,0.9610615059009696,None,0,3,3,3,0,6,6,25,,,201.0347975800014,None,202.03481680000186,None,3.760416666666667,2.0087260999971477,202.03481680000186,None,,,,,,,,,,,,,q,001,2020_Dec_01_1617,piloto1,2020.2.5,59.86317672330543,
1000,0.0,imagenes/Rollo de queso.png,0.9201641182756888,None,0,3,3,3,0,7,7,33,,,203.08465821999926,204.0847517000002,204.0847517000002,None,3.3372395833333335,1.4397258999997575,204.0847517000002,None,,,,,,,,,,,,,q,001,2020_Dec_01_1617,piloto1,2020.2.5,59.86317672330543,
1000,0.0,imagenes/Yogurt-alpina.jpg,0.5445152936222175,None,0,3,3,3,0,8,8,18,,,204.56783261999954,None,205.551116300001,None,3.552083333333333,1.419112600000517,205.551116300001,None,,,,,,,,,,,,,q,001,2020_Dec_01_1617,piloto1,2020.2.5,59.86317672330543,
1000,0.0,imagenes/Mango.jpeg,0.4341155418941499,None,0,3,3,3,0,9,9,10,,,206.01775722000093,207.01769120000245,207.00108349999937,None,None,None,207.00108349999937,None,,,,,,,,,,,,,q,001,2020_Dec_01_1617,piloto1,2020.2.5,59.86317672330543,
1000,0.0,imagenes/Pizza.png,0.21192443516553439,None,0,3,3,3,0,10,10,31,,,209.0177383199989,None,210.00058960000024,209.00706340000033,4.0078125,1.384998599998653,210.00058960000024,209.00706340000033,,,,,,,,,,,,,q,001,2020_Dec_01_1617,piloto1,2020.2.5,59.86317672330543,
1000,0.0,imagenes/Brocoli.jpg,0.24293074945529525,None,0,3,3,3,0,11,11,21,,,210.4174992600001,None,211.41749569999956,None,2.705729166666667,1.3920646000005945,211.41749569999956,None,,,,,,,,,,,,,q,001,2020_Dec_01_1617,piloto1,2020.2.5,59.86317672330543,
1000,0.0,imagenes/Coliflor.jpg,0.3640740491088985,None,0,3,3,3,0,12,12,24,,,211.83422266000161,212.8342685000025,212.8342685000025,None,2.1458333333333335,1.2201609000003373,212.8342685000025,None,,,,,,,,,,,,,q,001,2020_Dec_01_1617,piloto1,2020.2.5,59.86317672330543,
1000,0.0,imagenes/Galletas-festival.jpg,0.11306074364032936,None,0,3,3,3,0,13,13,7,,,213.10084882000228,None,214.0840465000001,None,3.0377604166666665,1.3163786999975855,214.0840465000001,None,,,,,,,,,,,,,q,001,2020_Dec_01_1617,piloto1,2020.2.5,59.86317672330543,
1000,0.0,imagenes/Nutella (1).jpg,0.8826531883338111,None,0,3,3,3,0,14,14,12,,,214.4508181199999,None,215.43449930000133,None,3.4544270833333335,1.3493748000000778,215.43449930000133,None,,,,,,,,,,,,,q,001,2020_Dec_01_1617,piloto1,2020.2.5,59.86317672330543,
1000,0.0,imagenes/Papas-naturales.jpg,0.37590629905521566,None,0,3,3,3,0,15,15,13,,,215.81714226000076,None,216.81760190000205,None,3.96875,1.3227191000005405,216.81760190000205,None,,,,,,,,,,,,,q,001,2020_Dec_01_1617,piloto1,2020.2.5,59.86317672330543,
1000,0.0,imagenes/Popetas.jpg,0.9621625733302204,None,0,3,3,3,0,16,16,16,,,217.21723443999872,218.2174997000002,218.2174997000002,None,3.0768229166666665,1.390556899998046,218.2174997000002,None,,,,,,,,,,,,,q,001,2020_Dec_01_1617,piloto1,2020.2.5,59.86317672330543,
1000,0.0,imagenes/Almojabanas.png,0.6725051200713246,None,0,3,3,3,0,17,17,20,,,218.66739748000145,None,219.65054489999966,None,4.02734375,2.362289000000601,219.65054489999966,None,,,,,,,,,,,,,q,001,2020_Dec_01_1617,piloto1,2020.2.5,59.86317672330543,
1000,0.0,imagenes/Galletas Tosh.jpg,0.9129693753280027,None,0,3,3,3,0,18,18,6,,,221.06693712000197,222.0673112000004,222.0673112000004,None,2.9661458333333335,1.3246261999993294,222.0673112000004,None,,,,,,,,,,,,,q,001,2020_Dec_01_1617,piloto1,2020.2.5,59.86317672330543,
1000,0.0,imagenes/bon-bon-bun.jpg,0.7417452724056987,None,0,3,3,3,0,19,19,2,,,222.43381862000024,223.43365370000174,223.43365370000174,None,3.936197916666667,1.3413903000000573,223.43365370000174,None,,,,,,,,,,,,,q,001,2020_Dec_01_1617,piloto1,2020.2.5,59.86317672330543,
1000,0.0,imagenes/salchicha hojaldrada.jpg,0.7119773165481526,None,0,3,3,3,0,20,20,35,,,223.8006298599994,None,224.78346990000136,None,4.1640625,1.3472986000015226,224.78346990000136,None,,,,,,,,,,,,,q,001,2020_Dec_01_1617,piloto1,2020.2.5,59.86317672330543,
1000,0.0,imagenes/Leche-de-almendras.jpg,0.3886559457994673,None,0,3,3,3,0,21,21,9,,,225.23353300000053,226.23370219999924,226.23370219999924,None,4.665364583333333,1.3712290000003122,226.23370219999924,None,,,,,,,,,,,,,q,001,2020_Dec_01_1617,piloto1,2020.2.5,59.86317672330543,
1000,0.0,imagenes/Kiwi.jpg,0.3929145850942286,None,0,3,3,3,0,22,22,8,,,226.633732960001,None,227.6334999999999,None,2.9921875,1.4237423000013223,227.6334999999999,None,,,,,,,,,,,,,q,001,2020_Dec_01_1617,piloto1,2020.2.5,59.86317672330543,
1000,0.0,imagenes/Brownie.jpg,0.2838924074864093,None,0,3,3,3,0,23,23,3,,,228.11696607999875,None,229.10053680000055,None,2.1263020833333335,1.6121679999996559,229.10053680000055,None,,,,,,,,,,,,,q,001,2020_Dec_01_1617,piloto1,2020.2.5,59.86317672330543,
1000,0.0,imagenes/Alpinito.jpg,0.7416150880621702,None,0,3,3,3,0,24,24,0,,,229.78371598000194,None,230.76786410000204,None,2.2239583333333335,1.631637899998168,230.76786410000204,None,,,,,,,,,,,,,q,001,2020_Dec_01_1617,piloto1,2020.2.5,59.86317672330543,
1000,0.0,imagenes/Papas picantes.jpg,0.524978898672612,None,0,3,3,3,0,25,25,27,,,231.43334635999963,232.43329409999933,232.41668690000006,None,2.549479166666667,1.3449639999998908,232.41668690000006,None,,,,,,,,,,,,,q,001,2020_Dec_01_1617,piloto1,2020.2.5,59.86317672330543,
1000,0.0,imagenes/Papas-pollo.jpg,0.08373485417902837,None,0,3,3,3,0,26,26,15,,,232.79983016000006,None,233.79993950000062,None,3.71484375,2.1402242000003753,233.79993950000062,None,,,,,,,,,,,,,q,001,2020_Dec_01_1617,piloto1,2020.2.5,59.86317672330543,
1000,0.0,imagenes/Pizzetas.png,0.3295951589873042,None,0,3,3,3,0,27,27,32,,,234.98315322000053,235.98330120000173,235.96648790000108,None,4.489583333333333,1.3618778999989445,235.96648790000108,None,,,,,,,,,,,,,q,001,2020_Dec_01_1617,piloto1,2020.2.5,59.86317672330543,
1000,0.0,imagenes/Canelazo.png,0.6730479360767814,None,0,3,3,3,0,28,28,22,,,236.38289892000103,237.38306160000138,237.38306160000138,None,2.640625,1.3385099999977683,237.38306160000138,None,,,,,,,,,,,,,q,001,2020_Dec_01_1617,piloto1,2020.2.5,59.86317672330543,
1000,0.0,imagenes/Rollos de canela.png,0.2610974409574519,None,0,3,3,3,0,29,29,34,,,237.76640942000085,None,238.75007259999984,None,3.571614583333333,1.4000094000002719,238.75007259999984,None,,,,,,,,,,,,,q,001,2020_Dec_01_1617,piloto1,2020.2.5,59.86317672330543,
1000,0.0,imagenes/Croissant.jpg,0.5824748589948932,None,0,3,3,3,0,30,30,5,,,239.21636708000187,240.21660709999924,240.1997780999991,None,3.91015625,1.1013378000025114,240.1997780999991,None,,,,,,,,,,,,,q,001,2020_Dec_01_1617,piloto1,2020.2.5,59.86317672330543,
1000,0.0,imagenes/pistachos.jpg,0.7450869742741464,None,0,3,3,3,0,31,31,30,,,240.33313685999929,None,241.31608290000077,None,3.721354166666667,1.3127631000024849,241.31608290000077,None,,,,,,,,,,,,,q,001,2020_Dec_01_1617,piloto1,2020.2.5,59.86317672330543,
1000,0.0,imagenes/Pescadito.png,0.7172825011486081,None,0,3,3,3,0,32,32,29,,,241.68271322000146,None,242.6660817000011,None,2.93359375,1.4305994999995164,242.6660817000011,None,,,,,,,,,,,,,q,001,2020_Dec_01_1617,piloto1,2020.2.5,59.86317672330543,
1000,0.0,imagenes/Uvas.jpg,0.4959291644143431,None,0,3,3,3,0,33,33,19,,,243.1497801200021,None,244.13257499999963,None,3.805989583333333,1.4026630999978806,244.13257499999963,None,,,,,,,,,,,,,q,001,2020_Dec_01_1617,piloto1,2020.2.5,59.86317672330543,
1000,0.0,imagenes/Pandebono.png,0.8988574378129985,None,0,3,3,3,0,34,34,26,,,244.5825932200023,None,245.56587639999998,None,4.346354166666667,1.2131020999986504,245.56587639999998,None,,,,,,,,,,,,,q,001,2020_Dec_01_1617,piloto1,2020.2.5,59.86317672330543,
1000,0.0,imagenes/Chontaduro.png,0.8693553300418813,None,0,3,3,3,0,35,35,23,,,245.81585376000112,246.8159295000005,246.8159295000005,None,3.734375,1.086524599999393,246.8159295000005,None,,,,,,,,,,,,,q,001,2020_Dec_01_1617,piloto1,2020.2.5,59.86317672330543,
1000,0.0,,,,0,3,3,3,,,,,,,,,,,,,,,,,,,,,,,,,,,q,001,2020_Dec_01_1617,piloto1,2020.2.5,59.86317672330543,
,,,,,,,,,,,,,,,,,,,,,,,246.93263930000103,None,247.93294180000157,None,248.94167620000007,None,249.97237280000263,None,250.99706960000185,None,253.04333540000152,None,,,,,,,
