Hertz,volumen,Imagenes,Random,Correcto,trials.thisRepN,trials.thisTrialN,trials.thisN,trials.thisIndex,trials_2.thisRepN,trials_2.thisTrialN,trials_2.thisN,trials_2.thisIndex,sound_3.started,sound_3.stopped,Sonido.started,Sonido.stopped,image_2.started,image_2.stopped,slider_2.response,slider_2.rt,slider_2.started,slider_2.stopped,text_2.started,text_2.stopped,text_3.started,text_3.stopped,text.started,text.stopped,text_4.started,text_4.stopped,image.started,image.stopped,participant,session,date,expName,psychopyVersion,frameRate,
400,0.02,imagenes/Brocoli.jpg,0.24293074945529525,None,0,0,0,0,0,0,0,21,9.966482930016355,None,20.150189599997248,None,21.201837200002046,None,3.766927083333333,2.2682191000058083,21.201837200002046,None,,,,,,,,,,,r,001,2020_Dec_15_1355,piloto1,2020.2.5,59.82006125576172,
400,0.02,imagenes/Yogurt-alpina.jpg,0.5445152936222175,None,0,0,0,0,0,1,1,18,,,22.466882690001512,23.467072400002507,23.467072400002507,None,3.610677083333333,1.4438683999906061,23.467072400002507,None,,,,,,,,,,,r,001,2020_Dec_15_1355,piloto1,2020.2.5,59.82006125576172,
400,0.02,imagenes/Papas-limon.jpg,0.5280798509093595,None,0,0,0,0,0,2,2,14,,,23.96696198999416,None,24.950422800000524,None,3.604166666666667,1.5152967999893008,24.950422800000524,None,,,,,,,,,,,r,001,2020_Dec_15_1355,piloto1,2020.2.5,59.82006125576172,
400,0.02,imagenes/Chontaduro.png,0.8693553300418813,None,0,0,0,0,0,3,3,23,,,25.533543589990586,26.533649699995294,26.533649699995294,None,3.604166666666667,1.1268447999900673,26.533649699995294,None,,,,,,,,,,,r,001,2020_Dec_15_1355,piloto1,2020.2.5,59.82006125576172,
400,0.02,imagenes/Papas picantes.jpg,0.524978898672612,None,0,0,0,0,0,4,4,27,,,26.683454729994992,27.68400739999197,27.68400739999197,None,3.604166666666667,1.1229999999923166,27.68400739999197,None,,,,,,,,,,,r,001,2020_Dec_15_1355,piloto1,2020.2.5,59.82006125576172,
400,0.02,imagenes/Leche-de-almendras.jpg,0.3886559457994673,None,0,0,0,0,0,5,5,9,,,27.966493069994613,None,28.950020599993877,None,3.591145833333333,1.254293999998481,28.950020599993877,None,,,,,,,,,,,r,001,2020_Dec_15_1355,piloto1,2020.2.5,59.82006125576172,
400,0.02,imagenes/Rollo de queso.png,0.9201641182756888,None,0,0,0,0,0,6,6,33,,,29.299761849993956,30.29975019999256,30.29975019999256,None,3.591145833333333,1.1462013999989722,30.29975019999256,None,,,,,,,,,,,r,001,2020_Dec_15_1355,piloto1,2020.2.5,59.82006125576172,
400,0.02,imagenes/Rollos de canela.png,0.2610974409574519,None,0,0,0,0,0,7,7,34,,,30.516502619997482,None,31.483889900002396,None,3.591145833333333,1.38646300000255,31.483889900002396,None,,,,,,,,,,,r,001,2020_Dec_15_1355,piloto1,2020.2.5,59.82006125576172,
400,0.02,imagenes/Galletas-festival.jpg,0.11306074364032936,None,0,0,0,0,0,8,8,7,,,31.949831890000496,None,32.91785399999935,None,3.552083333333333,1.2056338999973377,32.91785399999935,None,,,,,,,,,,,r,001,2020_Dec_15_1355,piloto1,2020.2.5,59.82006125576172,
400,0.02,imagenes/pistachos.jpg,0.7450869742741464,None,0,0,0,0,0,9,9,30,,,33.166728529991815,None,34.166584599995986,None,3.552083333333333,1.4923511999950279,34.166584599995986,None,,,,,,,,,,,r,001,2020_Dec_15_1355,piloto1,2020.2.5,59.82006125576172,
400,0.02,imagenes/Papas-naturales.jpg,0.37590629905521566,None,0,0,0,0,0,10,10,13,,,34.69969495999976,35.69997780000267,35.69997780000267,None,None,None,35.69997780000267,None,,,,,,,,,,,r,001,2020_Dec_15_1355,piloto1,2020.2.5,59.82006125576172,
400,0.02,imagenes/Banano.jpeg,0.2267656716538785,None,0,0,0,0,0,11,11,1,,,37.73294278999674,38.73305349999282,38.716271700002835,37.72457700000086,3.552083333333333,2.668472199991811,38.716271700002835,37.72457700000086,,,,,,,,,,,r,001,2020_Dec_15_1355,piloto1,2020.2.5,59.82006125576172,
400,0.02,imagenes/Popetas.jpg,0.9621625733302204,None,0,0,0,0,0,12,12,16,,,40.482757349993335,None,41.4660986999952,None,3.552083333333333,1.1143625999975484,41.4660986999952,None,,,,,,,,,,,r,001,2020_Dec_15_1355,piloto1,2020.2.5,59.82006125576172,
400,0.02,imagenes/Brownie.jpg,0.2838924074864093,None,0,0,0,0,0,13,13,3,,,41.68291904999933,None,42.683249399997294,None,3.552083333333333,1.3902416999917477,42.683249399997294,None,,,,,,,,,,,r,001,2020_Dec_15_1355,piloto1,2020.2.5,59.82006125576172,
400,0.02,imagenes/Uvas.jpg,0.4959291644143431,None,0,0,0,0,0,14,14,19,,,43.132857189993956,None,44.117211699995096,None,3.552083333333333,1.1500506000011228,44.117211699995096,None,,,,,,,,,,,r,001,2020_Dec_15_1355,piloto1,2020.2.5,59.82006125576172,
400,0.02,imagenes/Almojabanas.png,0.6725051200713246,None,0,0,0,0,0,15,15,20,,,44.36633955000434,None,45.34936130000278,None,3.552083333333333,1.8473903999984032,45.34936130000278,None,,,,,,,,,,,r,001,2020_Dec_15_1355,piloto1,2020.2.5,59.82006125576172,
400,0.02,imagenes/Pepinillos.png,0.0038966441241518046,None,0,0,0,0,0,16,16,28,,,46.26574678999896,47.26587999999174,47.26587999999174,None,3.552083333333333,1.009029399996507,47.26587999999174,None,,,,,,,,,,,r,001,2020_Dec_15_1355,piloto1,2020.2.5,59.82006125576172,
400,0.02,imagenes/Manzana.jpg,0.4048420327008191,None,0,0,0,0,0,17,17,11,,,47.34927422000328,48.34921210000175,48.34921210000175,None,3.552083333333333,1.588973799996893,48.34921210000175,None,,,,,,,,,,,r,001,2020_Dec_15_1355,piloto1,2020.2.5,59.82006125576172,
400,0.02,imagenes/Muffin de banano.png,0.9610615059009696,None,0,0,0,0,0,18,18,25,,,49.04920428000332,None,50.032260599997244,None,3.552083333333333,1.3199720999982674,50.032260599997244,None,,,,,,,,,,,r,001,2020_Dec_15_1355,piloto1,2020.2.5,59.82006125576172,
400,0.02,imagenes/Chocoramo.jfif.jpg,0.7425528559884101,None,0,0,0,0,0,19,19,4,,,50.43221201999404,51.43218619999243,51.41556519998994,None,3.552083333333333,1.66567170000053,51.41556519998994,None,,,,,,,,,,,r,001,2020_Dec_15_1355,piloto1,2020.2.5,59.82006125576172,
400,0.02,imagenes/Kiwi.jpg,0.3929145850942286,None,0,0,0,0,0,20,20,8,,,52.13231705999351,None,53.117368699997314,None,3.552083333333333,1.4818426000128966,53.117368699997314,None,,,,,,,,,,,r,001,2020_Dec_15_1355,piloto1,2020.2.5,59.82006125576172,
400,0.02,imagenes/Pandebono.png,0.8988574378129985,None,0,0,0,0,0,21,21,26,,,53.68218481999065,None,54.66581269999733,None,3.552083333333333,1.0541067000012845,54.66581269999733,None,,,,,,,,,,,r,001,2020_Dec_15_1355,piloto1,2020.2.5,59.82006125576172,
400,0.02,imagenes/Pizzetas.png,0.3295951589873042,None,0,0,0,0,0,22,22,32,,,54.782155790002435,55.782493399994564,55.782493399994564,None,3.552083333333333,1.4569144999986747,55.782493399994564,None,,,,,,,,,,,r,001,2020_Dec_15_1355,piloto1,2020.2.5,59.82006125576172,
400,0.02,imagenes/bon-bon-bun.jpg,0.7417452724056987,None,0,0,0,0,0,23,23,2,,,56.31539652000356,None,57.315264399992884,None,3.552083333333333,1.4453508000005968,57.315264399992884,None,,,,,,,,,,,r,001,2020_Dec_15_1355,piloto1,2020.2.5,59.82006125576172,
400,0.02,imagenes/Mango.jpeg,0.4341155418941499,None,0,0,0,0,0,24,24,10,,,57.81521549000172,58.81533669999044,58.81533669999044,None,3.552083333333333,1.3615940000017872,58.81533669999044,None,,,,,,,,,,,r,001,2020_Dec_15_1355,piloto1,2020.2.5,59.82006125576172,
400,0.02,imagenes/Coliflor.jpg,0.3640740491088985,None,0,0,0,0,0,25,25,24,,,59.23209928999131,None,60.215374199993676,None,3.552083333333333,1.5532343000086257,60.215374199993676,None,,,,,,,,,,,r,001,2020_Dec_15_1355,piloto1,2020.2.5,59.82006125576172,
400,0.02,imagenes/salchicha hojaldrada.jpg,0.7119773165481526,None,0,0,0,0,0,26,26,35,,,60.8152408599999,None,61.78187739998975,None,3.552083333333333,1.171357999992324,61.78187739998975,None,,,,,,,,,,,r,001,2020_Dec_15_1355,piloto1,2020.2.5,59.82006125576172,
400,0.02,imagenes/Croissant.jpg,0.5824748589948932,None,0,0,0,0,0,27,27,5,,,62.031568890000926,None,63.01719119999325,None,3.552083333333333,2.0338776000135113,63.01719119999325,None,,,,,,,,,,,r,001,2020_Dec_15_1355,piloto1,2020.2.5,59.82006125576172,
400,0.02,imagenes/Galletas Tosh.jpg,0.9129693753280027,None,0,0,0,0,0,28,28,6,,,64.13168871999369,None,65.1194545999897,None,3.552083333333333,1.1466120999975828,65.1194545999897,None,,,,,,,,,,,r,001,2020_Dec_15_1355,piloto1,2020.2.5,59.82006125576172,
400,0.02,imagenes/Alpinito.jpg,0.7416150880621702,None,0,0,0,0,0,29,29,0,,,65.38145878000068,66.38209669999196,66.38209669999196,None,3.552083333333333,1.0616459000011673,66.38209669999196,None,,,,,,,,,,,r,001,2020_Dec_15_1355,piloto1,2020.2.5,59.82006125576172,
400,0.02,imagenes/Papas-pollo.jpg,0.08373485417902837,None,0,0,0,0,0,30,30,15,,,66.48154385999078,67.48166559998936,67.48166559998936,None,3.552083333333333,1.2102672999899369,67.48166559998936,None,,,,,,,,,,,r,001,2020_Dec_15_1355,piloto1,2020.2.5,59.82006125576172,
400,0.02,imagenes/Rosquitas (1).jpg,0.024090340010977873,None,0,0,0,0,0,31,31,17,,,67.78144854999846,None,68.76493779999146,None,3.552083333333333,1.0031197999924188,68.76493779999146,None,,,,,,,,,,,r,001,2020_Dec_15_1355,piloto1,2020.2.5,59.82006125576172,
400,0.02,imagenes/Canelazo.png,0.6730479360767814,None,0,0,0,0,0,32,32,22,,,68.88158097999985,69.88146249999409,69.86497609999788,None,3.552083333333333,1.215557399991667,69.86497609999788,None,,,,,,,,,,,r,001,2020_Dec_15_1355,piloto1,2020.2.5,59.82006125576172,
400,0.02,imagenes/Pescadito.png,0.7172825011486081,None,0,0,0,0,0,33,33,29,,,70.1481675899995,None,71.14814509999997,None,3.552083333333333,1.0261194999911822,71.14814509999997,None,,,,,,,,,,,r,001,2020_Dec_15_1355,piloto1,2020.2.5,59.82006125576172,
400,0.02,imagenes/Nutella (1).jpg,0.8826531883338111,None,0,0,0,0,0,34,34,12,,,71.23126668999612,None,72.19809419999365,None,3.552083333333333,2.271652699986589,72.19809419999365,None,,,,,,,,,,,r,001,2020_Dec_15_1355,piloto1,2020.2.5,59.82006125576172,
400,0.02,imagenes/Pizza.png,0.21192443516553439,None,0,0,0,0,0,35,35,31,,,73.54795228999865,None,74.53124460000254,None,3.552083333333333,1.6861907999991672,74.53124460000254,None,,,,,,,,,,,r,001,2020_Dec_15_1355,piloto1,2020.2.5,59.82006125576172,
400,0.02,,,,0,0,0,0,,,,,,,,,,,,,,,,,,,,,,,,,r,001,2020_Dec_15_1355,piloto1,2020.2.5,59.82006125576172,
1500,0.02,imagenes/Chontaduro.png,0.8693553300418813,None,0,1,1,1,0,0,0,23,,,75.31445464999706,None,76.28091950000089,None,3.552083333333333,1.037262500001816,76.28091950000089,None,,,,,,,,,,,r,001,2020_Dec_15_1355,piloto1,2020.2.5,59.82006125576172,
1500,0.02,imagenes/Papas-limon.jpg,0.5280798509093595,None,0,1,1,1,0,1,1,14,,,76.38124155999685,77.38116099999752,77.38116099999752,None,3.552083333333333,1.4084216999908676,77.38116099999752,None,,,,,,,,,,,r,001,2020_Dec_15_1355,piloto1,2020.2.5,59.82006125576172,
1500,0.02,imagenes/Uvas.jpg,0.4959291644143431,None,0,1,1,1,0,2,2,19,,,77.84782259000349,None,78.83135359999142,None,3.552083333333333,1.5000499000016134,78.83135359999142,None,,,,,,,,,,,r,001,2020_Dec_15_1355,piloto1,2020.2.5,59.82006125576172,
1500,0.02,imagenes/bon-bon-bun.jpg,0.7417452724056987,None,0,1,1,1,0,3,3,2,,,79.4308292499918,None,80.39769649998925,None,3.552083333333333,1.6047567000059644,80.39769649998925,None,,,,,,,,,,,r,001,2020_Dec_15_1355,piloto1,2020.2.5,59.82006125576172,
1500,0.02,imagenes/Muffin de banano.png,0.9610615059009696,None,0,1,1,1,0,4,4,25,,,81.13058887999796,None,82.11432819999754,None,3.552083333333333,1.7881085999979405,82.11432819999754,None,,,,,,,,,,,r,001,2020_Dec_15_1355,piloto1,2020.2.5,59.82006125576172,
1500,0.02,imagenes/Banano.jpeg,0.2267656716538785,None,0,1,1,1,0,5,5,1,,,82.96424028999172,None,83.96420570000191,None,3.552083333333333,2.0789917999936733,83.96420570000191,None,,,,,,,,,,,r,001,2020_Dec_15_1355,piloto1,2020.2.5,59.82006125576172,
1500,0.02,imagenes/Chocoramo.jfif.jpg,0.7425528559884101,None,0,1,1,1,0,6,6,4,,,85.11394251999445,None,86.09748769999715,None,3.552083333333333,2.015996799993445,86.09748769999715,None,,,,,,,,,,,r,001,2020_Dec_15_1355,piloto1,2020.2.5,59.82006125576172,
1500,0.02,imagenes/Brownie.jpg,0.2838924074864093,None,0,1,1,1,0,7,7,3,,,87.21375224999792,88.21401319999131,88.21401319999131,None,3.552083333333333,1.9755284999992,88.21401319999131,None,,,,,,,,,,,r,001,2020_Dec_15_1355,piloto1,2020.2.5,59.82006125576172,
1500,0.02,imagenes/Nutella (1).jpg,0.8826531883338111,None,0,1,1,1,0,8,8,12,,,89.2306118599954,90.23066659999313,90.23066659999313,None,3.552083333333333,2.2749078999913763,90.23066659999313,None,,,,,,,,,,,r,001,2020_Dec_15_1355,piloto1,2020.2.5,59.82006125576172,
1500,0.02,imagenes/Galletas Tosh.jpg,0.9129693753280027,None,0,1,1,1,0,9,9,6,,,91.58041681999748,92.58085220000066,92.58085220000066,None,3.552083333333333,2.1130558000004385,92.58085220000066,None,,,,,,,,,,,r,001,2020_Dec_15_1355,piloto1,2020.2.5,59.82006125576172,
1500,0.02,imagenes/Papas-pollo.jpg,0.08373485417902837,None,0,1,1,1,0,10,10,15,,,93.73031476000324,94.73076029999356,94.71395119999943,None,3.552083333333333,2.115278400000534,94.71395119999943,None,,,,,,,,,,,r,001,2020_Dec_15_1355,piloto1,2020.2.5,59.82006125576172,
1500,0.02,imagenes/Leche-de-almendras.jpg,0.3886559457994673,None,0,1,1,1,0,11,11,9,,,95.97987913999532,None,96.98009769999771,None,3.5390625,2.045294499999727,96.98009769999771,None,,,,,,,,,,,r,001,2020_Dec_15_1355,piloto1,2020.2.5,59.82006125576172,
1500,0.02,imagenes/Kiwi.jpg,0.3929145850942286,None,0,1,1,1,0,12,12,8,,,98.06337315999554,None,99.04792769999767,None,None,None,99.04792769999767,None,,,,,,,,,,,r,001,2020_Dec_15_1355,piloto1,2020.2.5,59.82006125576172,
1500,0.02,imagenes/Manzana.jpg,0.4048420327008191,None,0,1,1,1,0,13,13,11,,,101.09699042000284,102.09655180000118,102.09655180000118,101.093495299996,3.5390625,1.5628486999921734,102.09655180000118,101.093495299996,,,,,,,,,,,r,001,2020_Dec_15_1355,piloto1,2020.2.5,59.82006125576172,
1500,0.02,imagenes/Almojabanas.png,0.6725051200713246,None,0,1,1,1,0,14,14,20,,,102.74659964999591,None,103.72997439999017,None,3.5390625,2.785139600004186,103.72997439999017,None,,,,,,,,,,,r,001,2020_Dec_15_1355,piloto1,2020.2.5,59.82006125576172,
1500,0.02,imagenes/Pandebono.png,0.8988574378129985,None,0,1,1,1,0,15,15,26,,,105.57988669000042,106.58014299999923,106.58014299999923,None,3.5390625,2.1436147000058554,106.58014299999923,None,,,,,,,,,,,r,001,2020_Dec_15_1355,piloto1,2020.2.5,59.82006125576172,
1500,0.02,imagenes/Pescadito.png,0.7172825011486081,None,0,1,1,1,0,16,16,29,,,107.77966179000214,108.77977519998967,108.77977519998967,None,3.532552083333333,2.490327999999863,108.77977519998967,None,,,,,,,,,,,r,001,2020_Dec_15_1355,piloto1,2020.2.5,59.82006125576172,
1500,0.02,imagenes/Galletas-festival.jpg,0.11306074364032936,None,0,1,1,1,0,17,17,7,,,110.34616351999284,None,111.32948709999619,None,3.532552083333333,1.4672084000048926,111.32948709999619,None,,,,,,,,,,,r,001,2020_Dec_15_1355,piloto1,2020.2.5,59.82006125576172,
1500,0.02,imagenes/Croissant.jpg,0.5824748589948932,None,0,1,1,1,0,18,18,5,,,111.91308588000538,112.91299509999226,112.91299509999226,None,3.532552083333333,1.6585133000044152,112.91299509999226,None,,,,,,,,,,,r,001,2020_Dec_15_1355,piloto1,2020.2.5,59.82006125576172,
1500,0.02,imagenes/Coliflor.jpg,0.3640740491088985,None,0,1,1,1,0,19,19,24,,,113.6127172599954,114.6129568000033,114.6129568000033,None,3.532552083333333,2.105562700002338,114.6129568000033,None,,,,,,,,,,,r,001,2020_Dec_15_1355,piloto1,2020.2.5,59.82006125576172,
1500,0.02,imagenes/Alpinito.jpg,0.7416150880621702,None,0,1,1,1,0,20,20,0,,,115.82924127999286,116.82935489999363,116.81292869999015,None,3.532552083333333,1.602486499992665,116.81292869999015,None,,,,,,,,,,,r,001,2020_Dec_15_1355,piloto1,2020.2.5,59.82006125576172,
1500,0.02,imagenes/Rosquitas (1).jpg,0.024090340010977873,None,0,1,1,1,0,21,21,17,,,117.51266394999402,None,118.49776790000033,None,3.532552083333333,1.8148769999970682,118.49776790000033,None,,,,,,,,,,,r,001,2020_Dec_15_1355,piloto1,2020.2.5,59.82006125576172,
1500,0.02,imagenes/Popetas.jpg,0.9621625733302204,None,0,1,1,1,0,22,22,16,,,119.41213174999575,None,120.39724639999622,None,None,None,120.39724639999622,None,,,,,,,,,,,r,001,2020_Dec_15_1355,piloto1,2020.2.5,59.82006125576172,
1500,0.02,imagenes/Yogurt-alpina.jpg,0.5445152936222175,None,0,1,1,1,0,23,23,18,,,122.42873955999676,None,123.41231529999641,122.41899549998925,3.532552083333333,1.5357836000039242,123.41231529999641,122.41899549998925,,,,,,,,,,,r,001,2020_Dec_15_1355,piloto1,2020.2.5,59.82006125576172,
1500,0.02,imagenes/Rollo de queso.png,0.9201641182756888,None,0,1,1,1,0,24,24,33,,,124.01185968999926,None,124.9976808999927,None,3.532552083333333,1.551588800008176,124.9976808999927,None,,,,,,,,,,,r,001,2020_Dec_15_1355,piloto1,2020.2.5,59.82006125576172,
1500,0.02,imagenes/Papas-naturales.jpg,0.37590629905521566,None,0,1,1,1,0,25,25,13,,,125.59514675999526,None,126.57880869999644,None,3.526041666666667,1.6853386000002502,126.57880869999644,None,,,,,,,,,,,r,001,2020_Dec_15_1355,piloto1,2020.2.5,59.82006125576172,
1500,0.02,imagenes/Mango.jpeg,0.4341155418941499,None,0,1,1,1,0,26,26,10,,,127.31223185999261,128.3121383999969,128.29548420000356,None,3.526041666666667,1.5027498999988893,128.29548420000356,None,,,,,,,,,,,r,001,2020_Dec_15_1355,piloto1,2020.2.5,59.82006125576172,
1500,0.02,imagenes/Rollos de canela.png,0.2610974409574519,None,0,1,1,1,0,27,27,34,,,128.86227118999523,None,129.84792800000287,None,3.526041666666667,1.6152454999973997,129.84792800000287,None,,,,,,,,,,,r,001,2020_Dec_15_1355,piloto1,2020.2.5,59.82006125576172,
1500,0.02,imagenes/Pepinillos.png,0.0038966441241518046,None,0,1,1,1,0,28,28,28,,,130.54535551999288,None,131.54527219999,None,3.55859375,2.6404557000059867,131.54527219999,None,,,,,,,,,,,r,001,2020_Dec_15_1355,piloto1,2020.2.5,59.82006125576172,
1500,0.02,imagenes/Pizzetas.png,0.3295951589873042,None,0,1,1,1,0,29,29,32,,,133.26177332000225,None,134.228409000003,None,3.552083333333333,1.5053383999911603,134.228409000003,None,,,,,,,,,,,r,001,2020_Dec_15_1355,piloto1,2020.2.5,59.82006125576172,
1500,0.02,imagenes/pistachos.jpg,0.7450869742741464,None,0,1,1,1,0,30,30,30,,,134.77845272999548,135.77826609999465,135.77826609999465,None,3.2330729166666665,1.5911735000117915,135.77826609999465,None,,,,,,,,,,,r,001,2020_Dec_15_1355,piloto1,2020.2.5,59.82006125576172,
1500,0.02,imagenes/Pizza.png,0.21192443516553439,None,0,1,1,1,0,31,31,31,,,136.42827768999268,None,137.4116129000031,None,3.1354166666666665,1.6854151000006823,137.4116129000031,None,,,,,,,,,,,r,001,2020_Dec_15_1355,piloto1,2020.2.5,59.82006125576172,
1500,0.02,imagenes/Papas picantes.jpg,0.524978898672612,None,0,1,1,1,0,32,32,27,,,138.12846782999986,139.1284549999982,139.1284549999982,None,3.2005208333333335,1.7393931999977212,139.1284549999982,None,,,,,,,,,,,r,001,2020_Dec_15_1355,piloto1,2020.2.5,59.82006125576172,
1500,0.02,imagenes/Canelazo.png,0.6730479360767814,None,0,1,1,1,0,33,33,22,,,139.96140805000323,140.96157010000024,140.96157010000024,None,3.2005208333333335,2.6571613999985857,140.96157010000024,None,,,,,,,,,,,r,001,2020_Dec_15_1355,piloto1,2020.2.5,59.82006125576172,
1500,0.02,imagenes/Brocoli.jpg,0.24293074945529525,None,0,1,1,1,0,34,34,21,,,142.66133525999612,143.66173900000285,143.64477349999652,None,3.3177083333333335,1.499559699994279,143.64477349999652,None,,,,,,,,,,,r,001,2020_Dec_15_1355,piloto1,2020.2.5,59.82006125576172,
1500,0.02,imagenes/salchicha hojaldrada.jpg,0.7119773165481526,None,0,1,1,1,0,35,35,35,,,144.17796212999383,145.17801979999058,145.17801979999058,None,3.3177083333333335,1.9269765999924857,145.17801979999058,None,,,,,,,,,,,r,001,2020_Dec_15_1355,piloto1,2020.2.5,59.82006125576172,
1500,0.02,,,,0,1,1,1,,,,,,,,,,,,,,,,,,,,,,,,,r,001,2020_Dec_15_1355,piloto1,2020.2.5,59.82006125576172,
1000,0.0,imagenes/Papas-pollo.jpg,0.08373485417902837,None,0,2,2,3,0,0,0,15,,,146.16110748999927,None,147.14459329999227,None,3.3177083333333335,1.415059899998596,147.14459329999227,None,,,,,,,,,,,r,001,2020_Dec_15_1355,piloto1,2020.2.5,59.82006125576172,
1000,0.0,imagenes/Leche-de-almendras.jpg,0.3886559457994673,None,0,2,2,3,0,1,1,9,,,147.72745827000472,None,148.7109449999989,None,3.3177083333333335,1.9461046999931568,148.7109449999989,None,,,,,,,,,,,r,001,2020_Dec_15_1355,piloto1,2020.2.5,59.82006125576172,
1000,0.0,imagenes/Papas picantes.jpg,0.524978898672612,None,0,2,2,3,0,2,2,27,,,149.69442323000112,150.69452239999373,150.69452239999373,None,3.3177083333333335,1.6057682999962708,150.69452239999373,None,,,,,,,,,,,r,001,2020_Dec_15_1355,piloto1,2020.2.5,59.82006125576172,
1000,0.0,imagenes/Galletas Tosh.jpg,0.9129693753280027,None,0,2,2,3,0,3,3,6,,,151.394159449992,None,152.37778969999636,None,3.3177083333333335,1.4380984000017634,152.37778969999636,None,,,,,,,,,,,r,001,2020_Dec_15_1355,piloto1,2020.2.5,59.82006125576172,
1000,0.0,imagenes/Pepinillos.png,0.0038966441241518046,None,0,2,2,3,0,4,4,28,,,152.89415821999137,153.8942728999973,153.8942728999973,None,3.3177083333333335,1.5243360999884317,153.8942728999973,None,,,,,,,,,,,r,001,2020_Dec_15_1355,piloto1,2020.2.5,59.82006125576172,
1000,0.0,imagenes/Coliflor.jpg,0.3640740491088985,None,0,2,2,3,0,5,5,24,,,154.46069665999676,155.46114220000163,155.46114220000163,None,3.3177083333333335,1.5059810999955516,155.46114220000163,None,,,,,,,,,,,r,001,2020_Dec_15_1355,piloto1,2020.2.5,59.82006125576172,
1000,0.0,imagenes/Rollo de queso.png,0.9201641182756888,None,0,2,2,3,0,6,6,33,,,156.04388231999474,157.0441068999935,157.0441068999935,None,3.3177083333333335,1.2404302000068128,157.0441068999935,None,,,,,,,,,,,r,001,2020_Dec_15_1355,piloto1,2020.2.5,59.82006125576172,
1000,0.0,imagenes/Almojabanas.png,0.6725051200713246,None,0,2,2,3,0,7,7,20,,,157.37713444999827,None,158.3441734999942,None,3.3177083333333335,1.4871168000099715,158.3441734999942,None,,,,,,,,,,,r,001,2020_Dec_15_1355,piloto1,2020.2.5,59.82006125576172,
1000,0.0,imagenes/Brownie.jpg,0.2838924074864093,None,0,2,2,3,0,8,8,3,,,158.91039648999867,159.91098709999642,159.91098709999642,None,3.3177083333333335,1.5374877999856835,159.91098709999642,None,,,,,,,,,,,r,001,2020_Dec_15_1355,piloto1,2020.2.5,59.82006125576172,
1000,0.0,imagenes/Brocoli.jpg,0.24293074945529525,None,0,2,2,3,0,9,9,21,,,160.477217630003,161.4771783999895,161.4771783999895,None,3.3177083333333335,1.4764024000032805,161.4771783999895,None,,,,,,,,,,,r,001,2020_Dec_15_1355,piloto1,2020.2.5,59.82006125576172,
1000,0.0,imagenes/Alpinito.jpg,0.7416150880621702,None,0,2,2,3,0,10,10,0,,,161.993337959997,162.9938742999948,162.9938742999948,None,3.3177083333333335,1.7896217000088654,162.9938742999948,None,,,,,,,,,,,r,001,2020_Dec_15_1355,piloto1,2020.2.5,59.82006125576172,
1000,0.0,imagenes/Galletas-festival.jpg,0.11306074364032936,None,0,2,2,3,0,11,11,7,,,163.84363919000316,164.84368540000287,164.84368540000287,None,3.3177083333333335,1.609329400002025,164.84368540000287,None,,,,,,,,,,,r,001,2020_Dec_15_1355,piloto1,2020.2.5,59.82006125576172,
1000,0.0,imagenes/Popetas.jpg,0.9621625733302204,None,0,2,2,3,0,12,12,16,,,165.5438345500006,166.5439400000032,166.5439400000032,None,3.3177083333333335,1.5773830999969505,166.5439400000032,None,,,,,,,,,,,r,001,2020_Dec_15_1355,piloto1,2020.2.5,59.82006125576172,
1000,0.0,imagenes/bon-bon-bun.jpg,0.7417452724056987,None,0,2,2,3,0,13,13,2,,,167.19324402000348,168.19370499999786,168.19370499999786,None,3.3177083333333335,1.5422022999991896,168.19370499999786,None,,,,,,,,,,,r,001,2020_Dec_15_1355,piloto1,2020.2.5,59.82006125576172,
1000,0.0,imagenes/Croissant.jpg,0.5824748589948932,None,0,2,2,3,0,14,14,5,,,168.82673824999074,169.8267036999896,169.8267036999896,None,3.2981770833333335,1.4882001999940258,169.8267036999896,None,,,,,,,,,,,r,001,2020_Dec_15_1355,piloto1,2020.2.5,59.82006125576172,
1000,0.0,imagenes/Banano.jpeg,0.2267656716538785,None,0,2,2,3,0,15,15,1,,,170.37661859000218,None,171.35994660000142,None,3.28515625,1.517242999994778,171.35994660000142,None,,,,,,,,,,,r,001,2020_Dec_15_1355,piloto1,2020.2.5,59.82006125576172,
1000,0.0,imagenes/Pescadito.png,0.7172825011486081,None,0,2,2,3,0,16,16,29,,,171.94335179000336,172.94334679999156,172.94334679999156,None,3.2721354166666665,1.32956360001117,172.94334679999156,None,,,,,,,,,,,r,001,2020_Dec_15_1355,piloto1,2020.2.5,59.82006125576172,
1000,0.0,imagenes/Papas-limon.jpg,0.5280798509093595,None,0,2,2,3,0,17,17,14,,,173.30985206000332,174.31035089999205,174.31035089999205,None,3.2721354166666665,2.0586981999949785,174.31035089999205,None,,,,,,,,,,,r,001,2020_Dec_15_1355,piloto1,2020.2.5,59.82006125576172,
1000,0.0,imagenes/Uvas.jpg,0.4959291644143431,None,0,2,2,3,0,18,18,19,,,175.42648629000178,None,176.4098546000023,None,3.2721354166666665,1.6203984000021592,176.4098546000023,None,,,,,,,,,,,r,001,2020_Dec_15_1355,piloto1,2020.2.5,59.82006125576172,
1000,0.0,imagenes/Rosquitas (1).jpg,0.024090340010977873,None,0,2,2,3,0,19,19,17,,,177.1100461199967,None,178.09319240000332,None,3.2721354166666665,1.8527216000074986,178.09319240000332,None,,,,,,,,,,,r,001,2020_Dec_15_1355,piloto1,2020.2.5,59.82006125576172,
1000,0.0,imagenes/Pandebono.png,0.8988574378129985,None,0,2,2,3,0,20,20,26,,,179.02608961999067,180.02629219999653,180.02629219999653,None,3.2721354166666665,1.641862200005562,180.02629219999653,None,,,,,,,,,,,r,001,2020_Dec_15_1355,piloto1,2020.2.5,59.82006125576172,
1000,0.0,imagenes/salchicha hojaldrada.jpg,0.7119773165481526,None,0,2,2,3,0,21,21,35,,,180.69290193000052,181.69329480000306,181.69329480000306,None,3.2721354166666665,1.6267644000035943,181.69329480000306,None,,,,,,,,,,,r,001,2020_Dec_15_1355,piloto1,2020.2.5,59.82006125576172,
1000,0.0,imagenes/Chocoramo.jfif.jpg,0.7425528559884101,None,0,2,2,3,0,22,22,4,,,182.39263031999872,None,183.39322859999083,None,3.2721354166666665,1.7390233999904012,183.39322859999083,None,,,,,,,,,,,r,001,2020_Dec_15_1355,piloto1,2020.2.5,59.82006125576172,
1000,0.0,imagenes/Kiwi.jpg,0.3929145850942286,None,0,2,2,3,0,23,23,8,,,184.15917382999032,185.1594111000013,185.1594111000013,None,3.2721354166666665,1.775513900007354,185.1594111000013,None,,,,,,,,,,,r,001,2020_Dec_15_1355,piloto1,2020.2.5,59.82006125576172,
1000,0.0,imagenes/Chontaduro.png,0.8693553300418813,None,0,2,2,3,0,24,24,23,,,185.99258378999366,None,186.97765499999514,None,3.2721354166666665,1.9685773999954108,186.97765499999514,None,,,,,,,,,,,r,001,2020_Dec_15_1355,piloto1,2020.2.5,59.82006125576172,
1000,0.0,imagenes/Mango.jpeg,0.4341155418941499,None,0,2,2,3,0,25,25,10,,,188.00944568999694,189.00921409999137,189.00921409999137,None,None,None,189.00921409999137,None,,,,,,,,,,,r,001,2020_Dec_15_1355,piloto1,2020.2.5,59.82006125576172,
1000,0.0,imagenes/Rollos de canela.png,0.2610974409574519,None,0,2,2,3,0,26,26,34,,,191.04250498999318,None,192.04228290000174,191.0393919999915,3.2721354166666665,1.596226099994965,192.04228290000174,191.0393919999915,,,,,,,,,,,r,001,2020_Dec_15_1355,piloto1,2020.2.5,59.82006125576172,
1000,0.0,imagenes/Nutella (1).jpg,0.8826531883338111,None,0,2,2,3,0,27,27,12,,,192.6756277599925,193.6756039000029,193.6756039000029,None,3.2721354166666665,1.6924048999935621,193.6756039000029,None,,,,,,,,,,,r,001,2020_Dec_15_1355,piloto1,2020.2.5,59.82006125576172,
1000,0.0,imagenes/Yogurt-alpina.jpg,0.5445152936222175,None,0,2,2,3,0,28,28,18,,,194.4421561199997,None,195.42545660000178,None,3.2721354166666665,1.7707828999991762,195.42545660000178,None,,,,,,,,,,,r,001,2020_Dec_15_1355,piloto1,2020.2.5,59.82006125576172,
1000,0.0,imagenes/Manzana.jpg,0.4048420327008191,None,0,2,2,3,0,29,29,11,,,196.29212344999542,None,197.2925738999911,None,3.2721354166666665,1.679640100002871,197.2925738999911,None,,,,,,,,,,,r,001,2020_Dec_15_1355,piloto1,2020.2.5,59.82006125576172,
1000,0.0,imagenes/Pizza.png,0.21192443516553439,None,0,2,2,3,0,30,30,31,,,198.02522668999154,None,199.00956079999742,None,3.2721354166666665,1.7864592999976594,199.00956079999742,None,,,,,,,,,,,r,001,2020_Dec_15_1355,piloto1,2020.2.5,59.82006125576172,
1000,0.0,imagenes/Papas-naturales.jpg,0.37590629905521566,None,0,2,2,3,0,31,31,13,,,199.84196075999353,200.84217839999474,200.84217839999474,None,3.28515625,1.8384967999882065,200.84217839999474,None,,,,,,,,,,,r,001,2020_Dec_15_1355,piloto1,2020.2.5,59.82006125576172,
1000,0.0,imagenes/pistachos.jpg,0.7450869742741464,None,0,2,2,3,0,32,32,30,,,201.70878913000342,202.70857459999388,202.6917581000016,None,3.28515625,1.69908380000561,202.6917581000016,None,,,,,,,,,,,r,001,2020_Dec_15_1355,piloto1,2020.2.5,59.82006125576172,
1000,0.0,imagenes/Muffin de banano.png,0.9610615059009696,None,0,2,2,3,0,33,33,25,,,203.50850067999272,204.50852869999653,204.50852869999653,None,3.28515625,1.6101632999925641,204.50852869999653,None,,,,,,,,,,,r,001,2020_Dec_15_1355,piloto1,2020.2.5,59.82006125576172,
1000,0.0,imagenes/Canelazo.png,0.6730479360767814,None,0,2,2,3,0,34,34,22,,,205.2580398400023,None,206.25845409999602,None,3.2721354166666665,1.6586364999966463,206.25845409999602,None,,,,,,,,,,,r,001,2020_Dec_15_1355,piloto1,2020.2.5,59.82006125576172,
1000,0.0,imagenes/Pizzetas.png,0.3295951589873042,None,0,2,2,3,0,35,35,32,,,206.9915637200029,None,207.99176499999885,None,3.2721354166666665,1.5111682999995537,207.99176499999885,None,,,,,,,,,,,r,001,2020_Dec_15_1355,piloto1,2020.2.5,59.82006125576172,
1000,0.0,,,,0,2,2,3,,,,,,,,,,,,,,,,,,,,,,,,,r,001,2020_Dec_15_1355,piloto1,2020.2.5,59.82006125576172,
1000,0.02,imagenes/Galletas Tosh.jpg,0.9129693753280027,None,0,3,3,2,0,0,0,6,,,208.62469281000085,None,209.60824819999107,None,3.2721354166666665,1.5015515999984927,209.60824819999107,None,,,,,,,,,,,r,001,2020_Dec_15_1355,piloto1,2020.2.5,59.82006125576172,
1000,0.02,imagenes/Uvas.jpg,0.4959291644143431,None,0,3,3,2,0,1,1,19,,,210.1747265899903,None,211.15798659999564,None,3.2721354166666665,1.6330012999969767,211.15798659999564,None,,,,,,,,,,,r,001,2020_Dec_15_1355,piloto1,2020.2.5,59.82006125576172,
1000,0.02,imagenes/Alpinito.jpg,0.7416150880621702,None,0,3,3,2,0,2,2,0,,,211.89123734999157,212.89137139999366,212.89137139999366,None,3.2721354166666665,1.4885503999976208,212.89137139999366,None,,,,,,,,,,,r,001,2020_Dec_15_1355,piloto1,2020.2.5,59.82006125576172,
1000,0.02,imagenes/Chocoramo.jfif.jpg,0.7425528559884101,None,0,3,3,2,0,3,3,4,,,213.4915274800005,None,214.45808470000338,None,3.2721354166666665,1.4378672000020742,214.45808470000338,None,,,,,,,,,,,r,001,2020_Dec_15_1355,piloto1,2020.2.5,59.82006125576172,
1000,0.02,imagenes/Rollos de canela.png,0.2610974409574519,None,0,3,3,2,0,4,4,34,,,214.9746117899922,215.97468909999589,215.97468909999589,None,3.2721354166666665,1.4272199999977602,215.97468909999589,None,,,,,,,,,,,r,001,2020_Dec_15_1355,piloto1,2020.2.5,59.82006125576172,
1000,0.02,imagenes/Brocoli.jpg,0.24293074945529525,None,0,3,3,2,0,5,5,21,,,216.4411047600006,None,217.42490369999723,None,3.2591145833333335,1.6008060000021942,217.42490369999723,None,,,,,,,,,,,r,001,2020_Dec_15_1355,piloto1,2020.2.5,59.82006125576172,
1000,0.02,imagenes/Rosquitas (1).jpg,0.024090340010977873,None,0,3,3,2,0,6,6,17,,,218.1077116200031,219.10781229998975,219.10781229998975,None,3.2591145833333335,1.7624036999914097,219.10781229998975,None,,,,,,,,,,,r,001,2020_Dec_15_1355,piloto1,2020.2.5,59.82006125576172,
1000,0.02,imagenes/Canelazo.png,0.6730479360767814,None,0,3,3,2,0,7,7,22,,,219.97426288000133,None,220.94099239999196,None,3.4479166666666665,1.65561840000737,220.94099239999196,None,,,,,,,,,,,r,001,2020_Dec_15_1355,piloto1,2020.2.5,59.82006125576172,
1000,0.02,imagenes/bon-bon-bun.jpg,0.7417452724056987,None,0,3,3,2,0,8,8,2,,,221.70758615000523,222.70760129998962,222.70760129998962,None,3.4479166666666665,1.7434027999988757,222.70760129998962,None,,,,,,,,,,,r,001,2020_Dec_15_1355,piloto1,2020.2.5,59.82006125576172,
1000,0.02,imagenes/Croissant.jpg,0.5824748589948932,None,0,3,3,2,0,9,9,5,,,223.5407219500048,224.54095470000175,224.54095470000175,None,3.4479166666666665,1.5757541000057245,224.54095470000175,None,,,,,,,,,,,r,001,2020_Dec_15_1355,piloto1,2020.2.5,59.82006125576172,
1000,0.02,imagenes/pistachos.jpg,0.7450869742741464,None,0,3,3,2,0,10,10,30,,,225.14094733000093,226.1411691999965,226.1411691999965,None,3.4479166666666665,1.6246356000046944,226.1411691999965,None,,,,,,,,,,,r,001,2020_Dec_15_1355,piloto1,2020.2.5,59.82006125576172,
1000,0.02,imagenes/Almojabanas.png,0.6725051200713246,None,0,3,3,2,0,11,11,20,,,226.84073651999643,227.8409102000005,227.8409102000005,None,3.4479166666666665,1.3720712999929674,227.8409102000005,None,,,,,,,,,,,r,001,2020_Dec_15_1355,piloto1,2020.2.5,59.82006125576172,
1000,0.02,imagenes/Yogurt-alpina.jpg,0.5445152936222175,None,0,3,3,2,0,12,12,18,,,228.274038189993,None,229.25741099999868,None,3.4479166666666665,1.4663134000002174,229.25741099999868,None,,,,,,,,,,,r,001,2020_Dec_15_1355,piloto1,2020.2.5,59.82006125576172,
1000,0.02,imagenes/Papas picantes.jpg,0.524978898672612,None,0,3,3,2,0,13,13,27,,,229.75703922999674,230.7571850999957,230.7571850999957,None,3.4479166666666665,1.4955584999988787,230.7571850999957,None,,,,,,,,,,,r,001,2020_Dec_15_1355,piloto1,2020.2.5,59.82006125576172,
1000,0.02,imagenes/salchicha hojaldrada.jpg,0.7119773165481526,None,0,3,3,2,0,14,14,35,,,231.2737666299945,None,232.27382239999133,None,3.4479166666666665,1.5751697999949101,232.27382239999133,None,,,,,,,,,,,r,001,2020_Dec_15_1355,piloto1,2020.2.5,59.82006125576172,
1000,0.02,imagenes/Mango.jpeg,0.4341155418941499,None,0,3,3,2,0,15,15,10,,,232.90701649000403,233.90711210000154,233.90711210000154,None,3.44140625,1.5588545000064187,233.90711210000154,None,,,,,,,,,,,r,001,2020_Dec_15_1355,piloto1,2020.2.5,59.82006125576172,
1000,0.02,imagenes/Pizza.png,0.21192443516553439,None,0,3,3,2,0,16,16,31,,,234.52361358999042,None,235.50752980000107,None,3.421875,1.4530219000007492,235.50752980000107,None,,,,,,,,,,,r,001,2020_Dec_15_1355,piloto1,2020.2.5,59.82006125576172,
1000,0.02,imagenes/Banano.jpeg,0.2267656716538785,None,0,3,3,2,0,17,17,1,,,236.02355068999168,None,237.00690569999279,None,3.421875,1.5651776000013342,237.00690569999279,None,,,,,,,,,,,r,001,2020_Dec_15_1355,piloto1,2020.2.5,59.82006125576172,
1000,0.02,imagenes/Papas-naturales.jpg,0.37590629905521566,None,0,3,3,2,0,18,18,13,,,237.62348605999432,238.62353349999466,238.62353349999466,None,3.4283854166666665,1.53954800000065,238.62353349999466,None,,,,,,,,,,,r,001,2020_Dec_15_1355,piloto1,2020.2.5,59.82006125576172,
1000,0.02,imagenes/Kiwi.jpg,0.3929145850942286,None,0,3,3,2,0,19,19,8,,,239.20685555999808,None,240.1901702999894,None,3.4283854166666665,1.3328306000039447,240.1901702999894,None,,,,,,,,,,,r,001,2020_Dec_15_1355,piloto1,2020.2.5,59.82006125576172,
1000,0.02,imagenes/Manzana.jpg,0.4048420327008191,None,0,3,3,2,0,20,20,11,,,240.62342585000442,241.62335779999557,241.62335779999557,None,3.4674479166666665,1.606910800008336,241.62335779999557,None,,,,,,,,,,,r,001,2020_Dec_15_1355,piloto1,2020.2.5,59.82006125576172,
1000,0.02,imagenes/Popetas.jpg,0.9621625733302204,None,0,3,3,2,0,21,21,16,,,242.33981468000275,243.34037239999452,243.34037239999452,None,3.4479166666666665,2.5957424999942305,243.34037239999452,None,,,,,,,,,,,r,001,2020_Dec_15_1355,piloto1,2020.2.5,59.82006125576172,
1000,0.02,imagenes/Papas-limon.jpg,0.5280798509093595,None,0,3,3,2,0,22,22,14,,,244.97318695999274,None,245.97288279999339,None,3.513020833333333,1.4551629000052344,245.97288279999339,None,,,,,,,,,,,r,001,2020_Dec_15_1355,piloto1,2020.2.5,59.82006125576172,
1000,0.02,imagenes/Papas-pollo.jpg,0.08373485417902837,None,0,3,3,2,0,23,23,15,,,246.4732195599936,None,247.45617999999376,None,3.513020833333333,1.7665073000098346,247.45617999999376,None,,,,,,,,,,,r,001,2020_Dec_15_1355,piloto1,2020.2.5,59.82006125576172,
1000,0.02,imagenes/Pizzetas.png,0.3295951589873042,None,0,3,3,2,0,24,24,32,,,248.3062372199929,None,249.28960899999947,None,3.513020833333333,1.554459400009364,249.28960899999947,None,,,,,,,,,,,r,001,2020_Dec_15_1355,piloto1,2020.2.5,59.82006125576172,
1000,0.02,imagenes/Brownie.jpg,0.2838924074864093,None,0,3,3,2,0,25,25,3,,,249.9394884499925,250.93966340000043,250.92296509999142,None,3.513020833333333,1.4981262000073912,250.92296509999142,None,,,,,,,,,,,r,001,2020_Dec_15_1355,piloto1,2020.2.5,59.82006125576172,
1000,0.02,imagenes/Pescadito.png,0.7172825011486081,None,0,3,3,2,0,26,26,29,,,251.489486890001,252.489576699998,252.489576699998,None,3.513020833333333,1.0385094999946887,252.489576699998,None,,,,,,,,,,,r,001,2020_Dec_15_1355,piloto1,2020.2.5,59.82006125576172,
1000,0.02,imagenes/Pandebono.png,0.8988574378129985,None,0,3,3,2,0,27,27,26,,,252.6063776200026,253.606151400003,253.58985839999514,None,3.513020833333333,1.8681630000064615,253.58985839999514,None,,,,,,,,,,,r,001,2020_Dec_15_1355,piloto1,2020.2.5,59.82006125576172,
1000,0.02,imagenes/Chontaduro.png,0.8693553300418813,None,0,3,3,2,0,28,28,23,,,254.52267319000384,None,255.50728939998953,None,3.513020833333333,1.9512640000029933,255.50728939998953,None,,,,,,,,,,,r,001,2020_Dec_15_1355,piloto1,2020.2.5,59.82006125576172,
1000,0.02,imagenes/Leche-de-almendras.jpg,0.3886559457994673,None,0,3,3,2,0,29,29,9,,,256.63909100000456,257.63929569999164,257.6228368000011,None,3.513020833333333,1.4009650999942096,257.6228368000011,None,,,,,,,,,,,r,001,2020_Dec_15_1355,piloto1,2020.2.5,59.82006125576172,
1000,0.02,imagenes/Pepinillos.png,0.0038966441241518046,None,0,3,3,2,0,30,30,28,,,258.1058575200004,259.1058941999945,259.08936079998966,None,3.513020833333333,1.6632682000054047,259.08936079998966,None,,,,,,,,,,,r,001,2020_Dec_15_1355,piloto1,2020.2.5,59.82006125576172,
1000,0.02,imagenes/Galletas-festival.jpg,0.11306074364032936,None,0,3,3,2,0,31,31,7,,,259.83915631999844,None,260.8224390999967,None,3.513020833333333,1.4852948999905493,260.8224390999967,None,,,,,,,,,,,r,001,2020_Dec_15_1355,piloto1,2020.2.5,59.82006125576172,
1000,0.02,imagenes/Muffin de banano.png,0.9610615059009696,None,0,3,3,2,0,32,32,25,,,261.40562935000344,262.4058056999929,262.3892036000034,None,3.513020833333333,1.848803200002294,262.3892036000034,None,,,,,,,,,,,r,001,2020_Dec_15_1355,piloto1,2020.2.5,59.82006125576172,
1000,0.02,imagenes/Rollo de queso.png,0.9201641182756888,None,0,3,3,2,0,33,33,33,,,263.32227222000074,264.32239950000076,264.32239950000076,None,3.513020833333333,1.5430721000011545,264.32239950000076,None,,,,,,,,,,,r,001,2020_Dec_15_1355,piloto1,2020.2.5,59.82006125576172,
1000,0.02,imagenes/Coliflor.jpg,0.3640740491088985,None,0,3,3,2,0,34,34,24,,,264.9223296900018,None,265.90558589999273,None,3.506510416666667,1.7351988000009442,265.90558589999273,None,,,,,,,,,,,r,001,2020_Dec_15_1355,piloto1,2020.2.5,59.82006125576172,
1000,0.02,imagenes/Nutella (1).jpg,0.8826531883338111,None,0,3,3,2,0,35,35,12,,,266.671926829993,267.67244599999685,267.67244599999685,None,3.506510416666667,1.3897972999984631,267.67244599999685,None,,,,,,,,,,,r,001,2020_Dec_15_1355,piloto1,2020.2.5,59.82006125576172,
1000,0.02,,,,0,3,3,2,,,,,,,,,,,,,,,,,,,,,,,,,r,001,2020_Dec_15_1355,piloto1,2020.2.5,59.82006125576172,
,,,,,,,,,,,,,,,,,,,,,,,268.08993799999007,None,269.0891053999949,None,270.14832559999195,None,271.13554039999144,None,272.1494906000007,None,,,,,,,
