Hertz,volumen,Imagenes,Random,Correcto,trials.thisRepN,trials.thisTrialN,trials.thisN,trials.thisIndex,trials_2.thisRepN,trials_2.thisTrialN,trials_2.thisN,trials_2.thisIndex,sound_3.started,sound_3.stopped,Sonido.started,Sonido.stopped,image_2.started,image_2.stopped,slider_2.response,slider_2.rt,slider_2.started,slider_2.stopped,text_2.started,text_2.stopped,text_3.started,text_3.stopped,text.started,text.stopped,text_4.started,text_4.stopped,image.started,image.stopped,texto_final.started,texto_final.stopped,participant,session,date,expName,psychopyVersion,frameRate,
1500,0.02,imagenes/Papas-limon.jpg,0.5280798509093595,None,0,0,0,1,0,0,0,14,10.1302387200034,None,20.277757619993647,None,21.329972599996836,None,None,None,21.329972599996836,None,,,,,,,,,,,,,r,001,2020_Dec_15_1349,piloto1,2020.2.5,60.006900795491035,
1500,0.02,imagenes/Rosquitas (1).jpg,0.024090340010977873,None,0,0,0,1,0,1,1,17,,,23.244160979994923,24.243811099993763,24.243811099993763,None,3.4674479166666665,1.6122317999979714,24.243811099993763,None,,,,,,,,,,,,,r,001,2020_Dec_15_1349,piloto1,2020.2.5,60.006900795491035,
1500,0.02,imagenes/Yogurt-alpina.jpg,0.5445152936222175,None,0,0,0,1,0,2,2,18,,,24.927286619995723,None,25.926989200001117,None,3.506510416666667,1.506824099997175,25.926989200001117,None,,,,,,,,,,,,,r,001,2020_Dec_15_1349,piloto1,2020.2.5,60.006900795491035,
1500,0.02,imagenes/Pizzetas.png,0.3295951589873042,None,0,0,0,1,0,3,3,32,,,26.527322599999025,27.52690939999593,27.52690939999593,None,3.506510416666667,1.5261402999894926,27.52690939999593,None,,,,,,,,,,,,,r,001,2020_Dec_15_1349,piloto1,2020.2.5,60.006900795491035,
1500,0.02,imagenes/Papas-pollo.jpg,0.08373485417902837,None,0,0,0,1,0,4,4,15,,,28.11059173999529,29.110212100000354,29.093541499998537,None,3.506510416666667,1.46821030000865,29.093541499998537,None,,,,,,,,,,,,,r,001,2020_Dec_15_1349,piloto1,2020.2.5,60.006900795491035,
1500,0.02,imagenes/Pandebono.png,0.8988574378129985,None,0,0,0,1,0,5,5,26,,,29.626939840000706,30.62678629999573,30.62678629999573,None,3.571614583333333,1.5871390999964206,30.62678629999573,None,,,,,,,,,,,,,r,001,2020_Dec_15_1349,piloto1,2020.2.5,60.006900795491035,
1500,0.02,imagenes/pistachos.jpg,0.7450869742741464,None,0,0,0,1,0,6,6,30,,,31.243450179995854,32.24344580000616,32.22660700000415,None,3.669270833333333,1.5961397000064608,32.22660700000415,None,,,,,,,,,,,,,r,001,2020_Dec_15_1349,piloto1,2020.2.5,60.006900795491035,
1500,0.02,imagenes/Canelazo.png,0.6730479360767814,None,0,0,0,1,0,7,7,22,,,32.97716524000571,None,33.960102600001846,None,3.669270833333333,1.6026314999908209,33.960102600001846,None,,,,,,,,,,,,,r,001,2020_Dec_15_1349,piloto1,2020.2.5,60.006900795491035,
1500,0.02,imagenes/Kiwi.jpg,0.3929145850942286,None,0,0,0,1,0,8,8,8,,,34.60991036000196,35.61020229999849,35.59337329999835,None,3.669270833333333,1.860997799987672,35.59337329999835,None,,,,,,,,,,,,,r,001,2020_Dec_15_1349,piloto1,2020.2.5,60.006900795491035,
1500,0.02,imagenes/Galletas Tosh.jpg,0.9129693753280027,None,0,0,0,1,0,9,9,6,,,36.526445940003036,None,37.49342780000006,None,3.669270833333333,1.6024566999985836,37.49342780000006,None,,,,,,,,,,,,,r,001,2020_Dec_15_1349,piloto1,2020.2.5,60.006900795491035,
1500,0.02,imagenes/Leche-de-almendras.jpg,0.3886559457994673,None,0,0,0,1,0,10,10,9,,,38.27674321999657,39.276264100000844,39.276264100000844,None,3.669270833333333,1.6244456999993417,39.276264100000844,None,,,,,,,,,,,,,r,001,2020_Dec_15_1349,piloto1,2020.2.5,60.006900795491035,
1500,0.02,imagenes/Galletas-festival.jpg,0.11306074364032936,None,0,0,0,1,0,11,11,7,,,39.97644682000682,None,40.96003820000624,None,3.669270833333333,1.4319491000060225,40.96003820000624,None,,,,,,,,,,,,,r,001,2020_Dec_15_1349,piloto1,2020.2.5,60.006900795491035,
1500,0.02,imagenes/salchicha hojaldrada.jpg,0.7119773165481526,None,0,0,0,1,0,12,12,35,,,41.44308755999664,None,42.42721979999624,None,3.669270833333333,1.669787200007704,42.42721979999624,None,,,,,,,,,,,,,r,001,2020_Dec_15_1349,piloto1,2020.2.5,60.006900795491035,
1500,0.02,imagenes/Manzana.jpg,0.4048420327008191,None,0,0,0,1,0,13,13,11,,,43.17634902000136,None,44.159534799997346,None,3.669270833333333,1.6342108999961056,44.159534799997346,None,,,,,,,,,,,,,r,001,2020_Dec_15_1349,piloto1,2020.2.5,60.006900795491035,
1500,0.02,imagenes/Rollo de queso.png,0.9201641182756888,None,0,0,0,1,0,14,14,33,,,44.87654561999661,45.8761261000036,45.8761261000036,None,3.669270833333333,1.4928466999990633,45.8761261000036,None,,,,,,,,,,,,,r,001,2020_Dec_15_1349,piloto1,2020.2.5,60.006900795491035,
1500,0.02,imagenes/Popetas.jpg,0.9621625733302204,None,0,0,0,1,0,15,15,16,,,46.45961950000492,47.45962829999917,47.45962829999917,None,3.63671875,1.6768147999973735,47.45962829999917,None,,,,,,,,,,,,,r,001,2020_Dec_15_1349,piloto1,2020.2.5,60.006900795491035,
1500,0.02,imagenes/Rollos de canela.png,0.2610974409574519,None,0,0,0,1,0,16,16,34,,,48.192952940004766,None,49.19254200000432,None,3.63671875,1.5103828999999678,49.19254200000432,None,,,,,,,,,,,,,r,001,2020_Dec_15_1349,piloto1,2020.2.5,60.006900795491035,
1500,0.02,imagenes/Brocoli.jpg,0.24293074945529525,None,0,0,0,1,0,17,17,21,,,49.742751259999935,None,50.727499000000535,None,3.63671875,1.4666901000018697,50.727499000000535,None,,,,,,,,,,,,,r,001,2020_Dec_15_1349,piloto1,2020.2.5,60.006900795491035,
1500,0.02,imagenes/Pescadito.png,0.7172825011486081,None,0,0,0,1,0,18,18,29,,,51.25932773999812,52.25909750000574,52.25909750000574,None,3.63671875,1.9437600999954157,52.25909750000574,None,,,,,,,,,,,,,r,001,2020_Dec_15_1349,piloto1,2020.2.5,60.006900795491035,
1500,0.02,imagenes/Nutella (1).jpg,0.8826531883338111,None,0,0,0,1,0,19,19,12,,,53.242517459995,54.24240160000045,54.24240160000045,None,3.63671875,1.8078779999923427,54.24240160000045,None,,,,,,,,,,,,,r,001,2020_Dec_15_1349,piloto1,2020.2.5,60.006900795491035,
1500,0.02,imagenes/Mango.jpeg,0.4341155418941499,None,0,0,0,1,0,20,20,10,,,55.109199139999696,56.10890330000257,56.10890330000257,None,3.63671875,1.5759164999908535,56.10890330000257,None,,,,,,,,,,,,,r,001,2020_Dec_15_1349,piloto1,2020.2.5,60.006900795491035,
1500,0.02,imagenes/bon-bon-bun.jpg,0.7417452724056987,None,0,0,0,1,0,21,21,2,,,56.792851180006984,None,57.77702660000068,None,3.63671875,1.7861801000108244,57.77702660000068,None,,,,,,,,,,,,,r,001,2020_Dec_15_1349,piloto1,2020.2.5,60.006900795491035,
1500,0.02,imagenes/Pizza.png,0.21192443516553439,None,0,0,0,1,0,22,22,31,,,58.62561093999539,None,59.60869969999476,None,3.6171875,1.9486777999991318,59.60869969999476,None,,,,,,,,,,,,,r,001,2020_Dec_15_1349,piloto1,2020.2.5,60.006900795491035,
1500,0.02,imagenes/Pepinillos.png,0.0038966441241518046,None,0,0,0,1,0,23,23,28,,,60.64219391999941,None,61.627774799999315,None,3.604166666666667,1.5870238000061363,61.627774799999315,None,,,,,,,,,,,,,r,001,2020_Dec_15_1349,piloto1,2020.2.5,60.006900795491035,
1500,0.02,imagenes/Banano.jpeg,0.2267656716538785,None,0,0,0,1,0,24,24,1,,,62.275403739998005,63.27521279999928,63.258452499998384,None,3.604166666666667,1.984154400008265,63.258452499998384,None,,,,,,,,,,,,,r,001,2020_Dec_15_1349,piloto1,2020.2.5,60.006900795491035,
1500,0.02,imagenes/Uvas.jpg,0.4959291644143431,None,0,0,0,1,0,25,25,19,,,64.29180306000052,None,65.27681819999998,None,3.591145833333333,1.7501158000086434,65.27681819999998,None,,,,,,,,,,,,,r,001,2020_Dec_15_1349,piloto1,2020.2.5,60.006900795491035,
1500,0.02,imagenes/Papas-naturales.jpg,0.37590629905521566,None,0,0,0,1,0,26,26,13,,,66.07532495999766,67.07502679999743,67.07502679999743,None,3.5390625,1.773422500002198,67.07502679999743,None,,,,,,,,,,,,,r,001,2020_Dec_15_1349,piloto1,2020.2.5,60.006900795491035,
1500,0.02,imagenes/Alpinito.jpg,0.7416150880621702,None,0,0,0,1,0,27,27,0,,,67.94211299999733,68.94190419999359,68.94190419999359,None,3.5390625,1.489319100001012,68.94190419999359,None,,,,,,,,,,,,,r,001,2020_Dec_15_1349,piloto1,2020.2.5,60.006900795491035,
1500,0.02,imagenes/Muffin de banano.png,0.9610615059009696,None,0,0,0,1,0,28,28,25,,,69.5252199999959,None,70.50815209999564,None,3.526041666666667,1.4167519000038737,70.50815209999564,None,,,,,,,,,,,,,r,001,2020_Dec_15_1349,piloto1,2020.2.5,60.006900795491035,
1500,0.02,imagenes/Chocoramo.jfif.jpg,0.7425528559884101,None,0,0,0,1,0,29,29,4,,,71.042204580002,None,72.02692980000575,None,3.526041666666667,1.6638881000108086,72.02692980000575,None,,,,,,,,,,,,,r,001,2020_Dec_15_1349,piloto1,2020.2.5,60.006900795491035,
1500,0.02,imagenes/Brownie.jpg,0.2838924074864093,None,0,0,0,1,0,30,30,3,,,72.80854088000487,73.8086112000019,73.79156549999607,None,3.526041666666667,1.8477098000003025,73.79156549999607,None,,,,,,,,,,,,,r,001,2020_Dec_15_1349,piloto1,2020.2.5,60.006900795491035,
1500,0.02,imagenes/Croissant.jpg,0.5824748589948932,None,0,0,0,1,0,31,31,5,,,74.74174100000528,75.74128519999795,75.74128519999795,None,3.51953125,2.1074354000011226,75.74128519999795,None,,,,,,,,,,,,,r,001,2020_Dec_15_1349,piloto1,2020.2.5,60.006900795491035,
1500,0.02,imagenes/Papas picantes.jpg,0.524978898672612,None,0,0,0,1,0,32,32,27,,,76.89148956000571,None,77.87468989999616,None,3.51953125,1.854515299986815,77.87468989999616,None,,,,,,,,,,,,,r,001,2020_Dec_15_1349,piloto1,2020.2.5,60.006900795491035,
1500,0.02,imagenes/Chontaduro.png,0.8693553300418813,None,0,0,0,1,0,33,33,23,,,78.79153164000017,None,79.77448920000461,None,3.51953125,1.919942100008484,79.77448920000461,None,,,,,,,,,,,,,r,001,2020_Dec_15_1349,piloto1,2020.2.5,60.006900795491035,
1500,0.02,imagenes/Almojabanas.png,0.6725051200713246,None,0,0,0,1,0,34,34,20,,,80.79124920000322,81.79108340000676,81.77435429999605,None,3.532552083333333,1.615260999999009,81.77435429999605,None,,,,,,,,,,,,,r,001,2020_Dec_15_1349,piloto1,2020.2.5,60.006900795491035,
1500,0.02,imagenes/Coliflor.jpg,0.3640740491088985,None,0,0,0,1,0,35,35,24,,,82.423989779994,83.42456959999981,83.42456959999981,None,3.532552083333333,1.4570027999870945,83.42456959999981,None,,,,,,,,,,,,,r,001,2020_Dec_15_1349,piloto1,2020.2.5,60.006900795491035,
1500,0.02,,,,0,0,0,1,,,,,,,,,,,,,,,,,,,,,,,,,,,r,001,2020_Dec_15_1349,piloto1,2020.2.5,60.006900795491035,
1000,0.0,imagenes/Almojabanas.png,0.6725051200713246,None,0,1,1,3,0,0,0,20,,,84.00794826000055,None,84.99089430000458,None,3.532552083333333,1.4702169000083813,84.99089430000458,None,,,,,,,,,,,,,r,001,2020_Dec_15_1349,piloto1,2020.2.5,60.006900795491035,
1000,0.0,imagenes/Yogurt-alpina.jpg,0.5445152936222175,None,0,1,1,3,0,1,1,18,,,85.52450953999941,86.52435639999749,86.52435639999749,None,3.532552083333333,1.4935425000003306,86.52435639999749,None,,,,,,,,,,,,,r,001,2020_Dec_15_1349,piloto1,2020.2.5,60.006900795491035,
1000,0.0,imagenes/Galletas Tosh.jpg,0.9129693753280027,None,0,1,1,3,0,2,2,6,,,87.10801739999442,None,88.07425059999514,None,3.532552083333333,1.6203874999919208,88.07425059999514,None,,,,,,,,,,,,,r,001,2020_Dec_15_1349,piloto1,2020.2.5,60.006900795491035,
1000,0.0,imagenes/Brownie.jpg,0.2838924074864093,None,0,1,1,3,0,3,3,3,,,88.79065312000456,89.79077520000283,89.77397769999516,None,3.532552083333333,1.4210233000048902,89.77397769999516,None,,,,,,,,,,,,,r,001,2020_Dec_15_1349,piloto1,2020.2.5,60.006900795491035,
1000,0.0,imagenes/Nutella (1).jpg,0.8826531883338111,None,0,1,1,3,0,4,4,12,,,90.25727923999948,91.25719940000272,91.25719940000272,None,3.532552083333333,1.241249600003357,91.25719940000272,None,,,,,,,,,,,,,r,001,2020_Dec_15_1349,piloto1,2020.2.5,60.006900795491035,
1000,0.0,imagenes/Brocoli.jpg,0.24293074945529525,None,0,1,1,3,0,5,5,21,,,91.54056116000282,None,92.52386610000394,None,3.532552083333333,1.7018500999984099,92.52386610000394,None,,,,,,,,,,,,,r,001,2020_Dec_15_1349,piloto1,2020.2.5,60.006900795491035,
1000,0.0,imagenes/Mango.jpeg,0.4341155418941499,None,0,1,1,3,0,6,6,10,,,93.29060174000624,94.29054329999781,94.29054329999781,None,3.532552083333333,1.579190300006303,94.29054329999781,None,,,,,,,,,,,,,r,001,2020_Dec_15_1349,piloto1,2020.2.5,60.006900795491035,
1000,0.0,imagenes/pistachos.jpg,0.7450869742741464,None,0,1,1,3,0,7,7,30,,,94.89036748000362,95.8903469999932,95.8903469999932,None,3.532552083333333,1.7086721000086982,95.8903469999932,None,,,,,,,,,,,,,r,001,2020_Dec_15_1349,piloto1,2020.2.5,60.006900795491035,
1000,0.0,imagenes/Pizzetas.png,0.3295951589873042,None,0,1,1,3,0,8,8,32,,,96.6403374599933,97.6402487000014,97.6402487000014,None,3.506510416666667,1.7740978000074392,97.6402487000014,None,,,,,,,,,,,,,r,001,2020_Dec_15_1349,piloto1,2020.2.5,60.006900795491035,
1000,0.0,imagenes/Pizza.png,0.21192443516553439,None,0,1,1,3,0,9,9,31,,,98.47382123999414,None,99.45681629999308,None,3.51953125,1.6694095999991987,99.45681629999308,None,,,,,,,,,,,,,r,001,2020_Dec_15_1349,piloto1,2020.2.5,60.006900795491035,
1000,0.0,imagenes/Muffin de banano.png,0.9610615059009696,None,0,1,1,3,0,10,10,25,,,100.24067228000203,101.24021309999807,101.22344260000682,None,3.4739583333333335,1.6035051999933785,101.22344260000682,None,,,,,,,,,,,,,r,001,2020_Dec_15_1349,piloto1,2020.2.5,60.006900795491035,
1000,0.0,imagenes/salchicha hojaldrada.jpg,0.7119773165481526,None,0,1,1,3,0,11,11,35,,,101.85678958000207,102.85662249999586,102.85662249999586,None,3.48046875,1.923786300001666,102.85662249999586,None,,,,,,,,,,,,,r,001,2020_Dec_15_1349,piloto1,2020.2.5,60.006900795491035,
1000,0.0,imagenes/Leche-de-almendras.jpg,0.3886559457994673,None,0,1,1,3,0,12,12,9,,,103.95742160000373,104.9566313999967,104.94015720000607,None,3.48046875,1.631655300006969,104.94015720000607,None,,,,,,,,,,,,,r,001,2020_Dec_15_1349,piloto1,2020.2.5,60.006900795491035,
1000,0.0,imagenes/Pepinillos.png,0.0038966441241518046,None,0,1,1,3,0,13,13,28,,,105.65701601999753,None,106.65646110000671,None,3.48046875,1.5588737999933073,106.65646110000671,None,,,,,,,,,,,,,r,001,2020_Dec_15_1349,piloto1,2020.2.5,60.006900795491035,
1000,0.0,imagenes/Rollos de canela.png,0.2610974409574519,None,0,1,1,3,0,14,14,34,,,107.27347703999548,None,108.25618359999498,None,3.4934895833333335,1.731857899998431,108.25618359999498,None,,,,,,,,,,,,,r,001,2020_Dec_15_1349,piloto1,2020.2.5,60.006900795491035,
1000,0.0,imagenes/Chontaduro.png,0.8693553300418813,None,0,1,1,3,0,15,15,23,,,109.05647773999662,None,110.03985519999696,None,3.526041666666667,1.569728500006022,110.03985519999696,None,,,,,,,,,,,,,r,001,2020_Dec_15_1349,piloto1,2020.2.5,60.006900795491035,
1000,0.0,imagenes/Coliflor.jpg,0.3640740491088985,None,0,1,1,3,0,16,16,24,,,110.67315634000697,None,111.63968940000632,None,3.526041666666667,1.8530795999977272,111.63968940000632,None,,,,,,,,,,,,,r,001,2020_Dec_15_1349,piloto1,2020.2.5,60.006900795491035,
1000,0.0,imagenes/Rosquitas (1).jpg,0.024090340010977873,None,0,1,1,3,0,17,17,17,,,112.5565503599966,113.55631080000603,113.5394793000014,None,3.526041666666667,1.6644136999966577,113.5394793000014,None,,,,,,,,,,,,,r,001,2020_Dec_15_1349,piloto1,2020.2.5,60.006900795491035,
1000,0.0,imagenes/Papas picantes.jpg,0.524978898672612,None,0,1,1,3,0,18,18,27,,,114.23944028000696,115.23945769999409,115.23945769999409,None,3.526041666666667,1.7913591999968048,115.23945769999409,None,,,,,,,,,,,,,r,001,2020_Dec_15_1349,piloto1,2020.2.5,60.006900795491035,
1000,0.0,imagenes/Papas-naturales.jpg,0.37590629905521566,None,0,1,1,3,0,19,19,13,,,116.07302755999552,None,117.07299610000337,None,3.526041666666667,1.8244511000084458,117.07299610000337,None,,,,,,,,,,,,,r,001,2020_Dec_15_1349,piloto1,2020.2.5,60.006900795491035,
1000,0.0,imagenes/Galletas-festival.jpg,0.11306074364032936,None,0,1,1,3,0,20,20,7,,,117.95616703999694,118.95589860000473,118.95589860000473,None,3.526041666666667,1.8284283999964828,118.95589860000473,None,,,,,,,,,,,,,r,001,2020_Dec_15_1349,piloto1,2020.2.5,60.006900795491035,
1000,0.0,imagenes/Popetas.jpg,0.9621625733302204,None,0,1,1,3,0,21,21,16,,,119.90648615999379,None,120.90583689999767,None,3.545572916666667,1.5432295000064187,120.90583689999767,None,,,,,,,,,,,,,r,001,2020_Dec_15_1349,piloto1,2020.2.5,60.006900795491035,
1000,0.0,imagenes/Papas-pollo.jpg,0.08373485417902837,None,0,1,1,3,0,22,22,15,,,121.48929595999942,122.48904030000267,122.48904030000267,None,3.545572916666667,2.310704200004693,122.48904030000267,None,,,,,,,,,,,,,r,001,2020_Dec_15_1349,piloto1,2020.2.5,60.006900795491035,
1000,0.0,imagenes/Banano.jpeg,0.2267656716538785,None,0,1,1,3,0,23,23,1,,,123.85594753999321,None,124.83901290000358,None,3.545572916666667,1.7345195999951102,124.83901290000358,None,,,,,,,,,,,,,r,001,2020_Dec_15_1349,piloto1,2020.2.5,60.006900795491035,
1000,0.0,imagenes/Papas-limon.jpg,0.5280798509093595,None,0,1,1,3,0,24,24,14,,,125.62232896000495,None,126.62220830000297,None,3.545572916666667,1.326357600002666,126.62220830000297,None,,,,,,,,,,,,,r,001,2020_Dec_15_1349,piloto1,2020.2.5,60.006900795491035,
1000,0.0,imagenes/Pandebono.png,0.8988574378129985,None,0,1,1,3,0,25,25,26,,,127.00574544000555,None,128.00547659999575,None,3.545572916666667,1.9418390000064392,128.00547659999575,None,,,,,,,,,,,,,r,001,2020_Dec_15_1349,piloto1,2020.2.5,60.006900795491035,
1000,0.0,imagenes/Kiwi.jpg,0.3929145850942286,None,0,1,1,3,0,26,26,8,,,128.98890955999667,None,129.97178920000442,None,3.545572916666667,1.9368020000110846,129.97178920000442,None,,,,,,,,,,,,,r,001,2020_Dec_15_1349,piloto1,2020.2.5,60.006900795491035,
1000,0.0,imagenes/Manzana.jpg,0.4048420327008191,None,0,1,1,3,0,27,27,11,,,130.98885781999562,None,131.97228139999788,None,3.545572916666667,1.5196228999993764,131.97228139999788,None,,,,,,,,,,,,,r,001,2020_Dec_15_1349,piloto1,2020.2.5,60.006900795491035,
1000,0.0,imagenes/Rollo de queso.png,0.9201641182756888,None,0,1,1,3,0,28,28,33,,,132.57218491999666,None,133.5722925000009,None,3.545572916666667,1.138433400003123,133.5722925000009,None,,,,,,,,,,,,,r,001,2020_Dec_15_1349,piloto1,2020.2.5,60.006900795491035,
1000,0.0,imagenes/Canelazo.png,0.6730479360767814,None,0,1,1,3,0,29,29,22,,,133.83907016000302,None,134.82164969999576,None,3.545572916666667,1.754719100004877,134.82164969999576,None,,,,,,,,,,,,,r,001,2020_Dec_15_1349,piloto1,2020.2.5,60.006900795491035,
1000,0.0,imagenes/Croissant.jpg,0.5824748589948932,None,0,1,1,3,0,30,30,5,,,135.6555125200015,136.65503290000197,136.65503290000197,None,3.545572916666667,1.5240002000064123,136.65503290000197,None,,,,,,,,,,,,,r,001,2020_Dec_15_1349,piloto1,2020.2.5,60.006900795491035,
1000,0.0,imagenes/bon-bon-bun.jpg,0.7417452724056987,None,0,1,1,3,0,31,31,2,,,137.27479939999466,None,138.27185580000514,None,3.545572916666667,1.5232205000065733,138.27185580000514,None,,,,,,,,,,,,,r,001,2020_Dec_15_1349,piloto1,2020.2.5,60.006900795491035,
1000,0.0,imagenes/Chocoramo.jfif.jpg,0.7425528559884101,None,0,1,1,3,0,32,32,4,,,138.8718628200062,None,139.87161119999655,None,3.545572916666667,1.4603764000057708,139.87161119999655,None,,,,,,,,,,,,,r,001,2020_Dec_15_1349,piloto1,2020.2.5,60.006900795491035,
1000,0.0,imagenes/Pescadito.png,0.7172825011486081,None,0,1,1,3,0,33,33,29,,,140.3883074400044,None,141.38823660000344,None,3.545572916666667,1.3084609000070486,141.38823660000344,None,,,,,,,,,,,,,r,001,2020_Dec_15_1349,piloto1,2020.2.5,60.006900795491035,
1000,0.0,imagenes/Alpinito.jpg,0.7416150880621702,None,0,1,1,3,0,34,34,0,,,141.805413579999,None,142.788029000003,None,3.545572916666667,1.5352903000020888,142.788029000003,None,,,,,,,,,,,,,r,001,2020_Dec_15_1349,piloto1,2020.2.5,60.006900795491035,
1000,0.0,imagenes/Uvas.jpg,0.4959291644143431,None,0,1,1,3,0,35,35,19,,,143.38824274000652,144.38815420000174,144.37136839999584,None,3.545572916666667,1.8503985999996075,144.37136839999584,None,,,,,,,,,,,,,r,001,2020_Dec_15_1349,piloto1,2020.2.5,60.006900795491035,
1000,0.0,,,,0,1,1,3,,,,,,,,,,,,,,,,,,,,,,,,,,,r,001,2020_Dec_15_1349,piloto1,2020.2.5,60.006900795491035,
400,0.02,imagenes/Pizzetas.png,0.3295951589873042,None,0,2,2,0,0,0,0,32,,,145.35518256000358,None,146.337950000001,None,3.545572916666667,1.2167373999982374,146.337950000001,None,,,,,,,,,,,,,r,001,2020_Dec_15_1349,piloto1,2020.2.5,60.006900795491035,
400,0.02,imagenes/Kiwi.jpg,0.3929145850942286,None,0,2,2,0,0,1,1,8,,,146.60476226000463,None,147.58787010000378,None,3.545572916666667,1.898605200010934,147.58787010000378,None,,,,,,,,,,,,,r,001,2020_Dec_15_1349,piloto1,2020.2.5,60.006900795491035,
400,0.02,imagenes/Brownie.jpg,0.2838924074864093,None,0,2,2,0,0,2,2,3,,,148.58838139999716,None,149.58790040000167,None,3.545572916666667,1.5590162000007695,149.58790040000167,None,,,,,,,,,,,,,r,001,2020_Dec_15_1349,piloto1,2020.2.5,60.006900795491035,
400,0.02,imagenes/Galletas-festival.jpg,0.11306074364032936,None,0,2,2,0,0,3,3,7,,,150.2213401200046,151.2212242999958,151.2043427000026,None,3.545572916666667,1.1817774999944959,151.2043427000026,None,,,,,,,,,,,,,r,001,2020_Dec_15_1349,piloto1,2020.2.5,60.006900795491035,
400,0.02,imagenes/Pepinillos.png,0.0038966441241518046,None,0,2,2,0,0,4,4,28,,,151.47144882000285,152.47106850000273,152.45438520000607,None,3.545572916666667,2.963176899997052,152.45438520000607,None,,,,,,,,,,,,,r,001,2020_Dec_15_1349,piloto1,2020.2.5,60.006900795491035,
400,0.02,imagenes/Brocoli.jpg,0.24293074945529525,None,0,2,2,0,0,5,5,21,,,154.47106035999894,None,155.4543008000037,154.4624829999957,3.552083333333333,1.6343493000022136,155.4543008000037,154.4624829999957,,,,,,,,,,,,,r,001,2020_Dec_15_1349,piloto1,2020.2.5,60.006900795491035,
400,0.02,imagenes/Coliflor.jpg,0.3640740491088985,None,0,2,2,0,0,6,6,24,,,156.1545578399935,None,157.13745730000664,None,3.552083333333333,1.7042380000057165,157.13745730000664,None,,,,,,,,,,,,,r,001,2020_Dec_15_1349,piloto1,2020.2.5,60.006900795491035,
400,0.02,imagenes/Rosquitas (1).jpg,0.024090340010977873,None,0,2,2,0,0,7,7,17,,,157.92119132000371,None,158.9042538000067,None,3.552083333333333,1.4864046000002418,158.9042538000067,None,,,,,,,,,,,,,r,001,2020_Dec_15_1349,piloto1,2020.2.5,60.006900795491035,
400,0.02,imagenes/Papas-naturales.jpg,0.37590629905521566,None,0,2,2,0,0,8,8,13,,,159.4377027600014,160.4372230000008,160.4372230000008,None,3.552083333333333,1.5400365999958012,160.4372230000008,None,,,,,,,,,,,,,r,001,2020_Dec_15_1349,piloto1,2020.2.5,60.006900795491035,
400,0.02,imagenes/Galletas Tosh.jpg,0.9129693753280027,None,0,2,2,0,0,9,9,6,,,161.05420262000408,162.05397940000694,162.05397940000694,None,3.552083333333333,1.6416411999962293,162.05397940000694,None,,,,,,,,,,,,,r,001,2020_Dec_15_1349,piloto1,2020.2.5,60.006900795491035,
400,0.02,imagenes/Papas picantes.jpg,0.524978898672612,None,0,2,2,0,0,10,10,27,,,162.72071447999915,163.72049259999767,163.72049259999767,None,3.552083333333333,1.5233490000100574,163.72049259999767,None,,,,,,,,,,,,,r,001,2020_Dec_15_1349,piloto1,2020.2.5,60.006900795491035,
400,0.02,imagenes/Canelazo.png,0.6730479360767814,None,0,2,2,0,0,11,11,22,,,164.3542063800065,165.3537248000066,165.3537248000066,None,3.552083333333333,1.6623393000045326,165.3537248000066,None,,,,,,,,,,,,,r,001,2020_Dec_15_1349,piloto1,2020.2.5,60.006900795491035,
400,0.02,imagenes/Papas-limon.jpg,0.5280798509093595,None,0,2,2,0,0,12,12,14,,,166.05378655999374,167.05364529999497,167.05364529999497,None,3.552083333333333,1.3900424000021303,167.05364529999497,None,,,,,,,,,,,,,r,001,2020_Dec_15_1349,piloto1,2020.2.5,60.006900795491035,
400,0.02,imagenes/Muffin de banano.png,0.9610615059009696,None,0,2,2,0,0,13,13,25,,,167.55393648000026,None,168.53678379999474,None,3.552083333333333,1.7040447000035783,168.53678379999474,None,,,,,,,,,,,,,r,001,2020_Dec_15_1349,piloto1,2020.2.5,60.006900795491035,
400,0.02,imagenes/Mango.jpeg,0.4341155418941499,None,0,2,2,0,0,14,14,10,,,169.3371987999999,None,170.30352210000274,None,3.552083333333333,1.5880472999997437,170.30352210000274,None,,,,,,,,,,,,,r,001,2020_Dec_15_1349,piloto1,2020.2.5,60.006900795491035,
400,0.02,imagenes/Rollos de canela.png,0.2610974409574519,None,0,2,2,0,0,15,15,34,,,170.97038874000717,171.97018429999298,171.97018429999298,None,3.552083333333333,1.8428051999944728,171.97018429999298,None,,,,,,,,,,,,,r,001,2020_Dec_15_1349,piloto1,2020.2.5,60.006900795491035,
400,0.02,imagenes/Leche-de-almendras.jpg,0.3886559457994673,None,0,2,2,0,0,16,16,9,,,172.9870554999943,173.98662650000188,173.98662650000188,None,3.552083333333333,1.5414786000037566,173.98662650000188,None,,,,,,,,,,,,,r,001,2020_Dec_15_1349,piloto1,2020.2.5,60.006900795491035,
400,0.02,imagenes/Yogurt-alpina.jpg,0.5445152936222175,None,0,2,2,0,0,17,17,18,,,174.5867847400048,None,175.56994440000562,None,3.552083333333333,1.5971441000001505,175.56994440000562,None,,,,,,,,,,,,,r,001,2020_Dec_15_1349,piloto1,2020.2.5,60.006900795491035,
400,0.02,imagenes/Nutella (1).jpg,0.8826531883338111,None,0,2,2,0,0,18,18,12,,,176.22113085999734,None,177.2199447000021,None,3.552083333333333,1.554951300000539,177.2199447000021,None,,,,,,,,,,,,,r,001,2020_Dec_15_1349,piloto1,2020.2.5,60.006900795491035,
400,0.02,imagenes/Pescadito.png,0.7172825011486081,None,0,2,2,0,0,19,19,29,,,177.83675543999996,178.83639979999862,178.82000700000208,None,3.552083333333333,1.5641941000067163,178.82000700000208,None,,,,,,,,,,,,,r,001,2020_Dec_15_1349,piloto1,2020.2.5,60.006900795491035,
400,0.02,imagenes/bon-bon-bun.jpg,0.7417452724056987,None,0,2,2,0,0,20,20,2,,,179.47027251999535,None,180.4530800000066,None,3.552083333333333,1.4833881000085967,180.4530800000066,None,,,,,,,,,,,,,r,001,2020_Dec_15_1349,piloto1,2020.2.5,60.006900795491035,
400,0.02,imagenes/Croissant.jpg,0.5824748589948932,None,0,2,2,0,0,21,21,5,,,181.02010791999638,182.0198073000065,182.0198073000065,None,3.552083333333333,1.8923854000022402,182.0198073000065,None,,,,,,,,,,,,,r,001,2020_Dec_15_1349,piloto1,2020.2.5,60.006900795491035,
400,0.02,imagenes/Pizza.png,0.21192443516553439,None,0,2,2,0,0,22,22,31,,,182.96965664000598,None,183.95294200000353,None,3.552083333333333,1.6706388000020524,183.95294200000353,None,,,,,,,,,,,,,r,001,2020_Dec_15_1349,piloto1,2020.2.5,60.006900795491035,
400,0.02,imagenes/Alpinito.jpg,0.7416150880621702,None,0,2,2,0,0,23,23,0,,,184.73635057999635,None,185.7361799999926,None,3.552083333333333,1.691154500003904,185.7361799999926,None,,,,,,,,,,,,,r,001,2020_Dec_15_1349,piloto1,2020.2.5,60.006900795491035,
400,0.02,imagenes/Chontaduro.png,0.8693553300418813,None,0,2,2,0,0,24,24,23,,,186.4861016400071,None,187.46930139999313,None,3.552083333333333,1.7171610000077635,187.46930139999313,None,,,,,,,,,,,,,r,001,2020_Dec_15_1349,piloto1,2020.2.5,60.006900795491035,
400,0.02,imagenes/Manzana.jpg,0.4048420327008191,None,0,2,2,0,0,25,25,11,,,188.2697221199982,189.26939620000485,189.26939620000485,None,3.552083333333333,1.7604208999982802,189.26939620000485,None,,,,,,,,,,,,,r,001,2020_Dec_15_1349,piloto1,2020.2.5,60.006900795491035,
400,0.02,imagenes/Papas-pollo.jpg,0.08373485417902837,None,0,2,2,0,0,26,26,15,,,190.06922556000353,191.06939269999566,191.05255399999442,None,3.552083333333333,1.4967104999959702,191.05255399999442,None,,,,,,,,,,,,,r,001,2020_Dec_15_1349,piloto1,2020.2.5,60.006900795491035,
400,0.02,imagenes/Popetas.jpg,0.9621625733302204,None,0,2,2,0,0,27,27,16,,,191.66966377999924,192.66916039999342,192.65260339999804,None,3.552083333333333,2.1842412000114564,192.65260339999804,None,,,,,,,,,,,,,r,001,2020_Dec_15_1349,piloto1,2020.2.5,60.006900795491035,
400,0.02,imagenes/salchicha hojaldrada.jpg,0.7119773165481526,None,0,2,2,0,0,28,28,35,,,193.86941268000518,194.86880820000079,194.86880820000079,None,3.552083333333333,1.9421632999874419,194.86880820000079,None,,,,,,,,,,,,,r,001,2020_Dec_15_1349,piloto1,2020.2.5,60.006900795491035,
400,0.02,imagenes/Chocoramo.jfif.jpg,0.7425528559884101,None,0,2,2,0,0,29,29,4,,,195.8858189200022,None,196.86882970000443,None,3.552083333333333,1.518112799996743,196.86882970000443,None,,,,,,,,,,,,,r,001,2020_Dec_15_1349,piloto1,2020.2.5,60.006900795491035,
400,0.02,imagenes/Almojabanas.png,0.6725051200713246,None,0,2,2,0,0,30,30,20,,,197.48617459999514,198.4854489999998,198.4854489999998,None,3.552083333333333,1.477002800005721,198.4854489999998,None,,,,,,,,,,,,,r,001,2020_Dec_15_1349,piloto1,2020.2.5,60.006900795491035,
400,0.02,imagenes/Uvas.jpg,0.4959291644143431,None,0,2,2,0,0,31,31,19,,,199.00204615999536,None,199.98720570000296,None,3.552083333333333,1.4341385000006994,199.98720570000296,None,,,,,,,,,,,,,r,001,2020_Dec_15_1349,piloto1,2020.2.5,60.006900795491035,
400,0.02,imagenes/pistachos.jpg,0.7450869742741464,None,0,2,2,0,0,32,32,30,,,200.45209067999676,201.4521270999976,201.4521270999976,None,3.552083333333333,1.3599398000078509,201.4521270999976,None,,,,,,,,,,,,,r,001,2020_Dec_15_1349,piloto1,2020.2.5,60.006900795491035,
400,0.02,imagenes/Rollo de queso.png,0.9201641182756888,None,0,2,2,0,0,33,33,33,,,201.88557982000057,202.88515950000146,202.88515950000146,None,3.552083333333333,1.4250755999964895,202.88515950000146,None,,,,,,,,,,,,,r,001,2020_Dec_15_1349,piloto1,2020.2.5,60.006900795491035,
400,0.02,imagenes/Pandebono.png,0.8988574378129985,None,0,2,2,0,0,34,34,26,,,203.36875724000564,204.36852930000168,204.36852930000168,None,3.552083333333333,1.395756199999596,204.36852930000168,None,,,,,,,,,,,,,r,001,2020_Dec_15_1349,piloto1,2020.2.5,60.006900795491035,
400,0.02,imagenes/Banano.jpeg,0.2267656716538785,None,0,2,2,0,0,35,35,1,,,204.81889344000663,None,205.80198800000653,None,3.552083333333333,1.234365500000422,205.80198800000653,None,,,,,,,,,,,,,r,001,2020_Dec_15_1349,piloto1,2020.2.5,60.006900795491035,
400,0.02,,,,0,2,2,0,,,,,,,,,,,,,,,,,,,,,,,,,,,r,001,2020_Dec_15_1349,piloto1,2020.2.5,60.006900795491035,
1000,0.02,imagenes/Coliflor.jpg,0.3640740491088985,None,0,3,3,2,0,0,0,24,,,206.11880682000483,207.11834030000318,207.11834030000318,None,3.552083333333333,1.5585667999985162,207.11834030000318,None,,,,,,,,,,,,,r,001,2020_Dec_15_1349,piloto1,2020.2.5,60.006900795491035,
1000,0.02,imagenes/Uvas.jpg,0.4959291644143431,None,0,3,3,2,0,1,1,19,,,207.71834465999854,208.7184111999959,208.7184111999959,None,3.552083333333333,1.5593510000035167,208.7184111999959,None,,,,,,,,,,,,,r,001,2020_Dec_15_1349,piloto1,2020.2.5,60.006900795491035,
1000,0.02,imagenes/Galletas-festival.jpg,0.11306074364032936,None,0,3,3,2,0,2,2,7,,,209.31814665999553,210.31822980000288,210.30202990000544,None,3.565104166666667,1.496306300003198,210.30202990000544,None,,,,,,,,,,,,,r,001,2020_Dec_15_1349,piloto1,2020.2.5,60.006900795491035,
1000,0.02,imagenes/Mango.jpeg,0.4341155418941499,None,0,3,3,2,0,3,3,10,,,210.8683274400071,211.8681848999986,211.8681848999986,None,3.565104166666667,1.974835000000894,211.8681848999986,None,,,,,,,,,,,,,r,001,2020_Dec_15_1349,piloto1,2020.2.5,60.006900795491035,
1000,0.02,imagenes/Pescadito.png,0.7172825011486081,None,0,3,3,2,0,4,4,29,,,212.9020171400014,213.90177029999904,213.90177029999904,None,3.565104166666667,1.4604694000008749,213.90177029999904,None,,,,,,,,,,,,,r,001,2020_Dec_15_1349,piloto1,2020.2.5,60.006900795491035,
1000,0.02,imagenes/Pepinillos.png,0.0038966441241518046,None,0,3,3,2,0,5,5,28,,,214.4518526000029,None,215.45151919999626,None,3.565104166666667,1.7782469000085257,215.45151919999626,None,,,,,,,,,,,,,r,001,2020_Dec_15_1349,piloto1,2020.2.5,60.006900795491035,
1000,0.02,imagenes/Pizzetas.png,0.3295951589873042,None,0,3,3,2,0,6,6,32,,,216.28470544000155,None,217.2845937999955,None,3.565104166666667,1.7412841000041226,217.2845937999955,None,,,,,,,,,,,,,r,001,2020_Dec_15_1349,piloto1,2020.2.5,60.006900795491035,
1000,0.02,imagenes/bon-bon-bun.jpg,0.7417452724056987,None,0,3,3,2,0,7,7,2,,,218.11819490000198,219.11781450000126,219.11781450000126,None,3.565104166666667,2.5938237000082154,219.11781450000126,None,,,,,,,,,,,,,r,001,2020_Dec_15_1349,piloto1,2020.2.5,60.006900795491035,
1000,0.02,imagenes/Manzana.jpg,0.4048420327008191,None,0,3,3,2,0,8,8,11,,,220.80140559999563,221.80111699999543,221.80111699999543,None,3.565104166666667,1.6949359999998705,221.80111699999543,None,,,,,,,,,,,,,r,001,2020_Dec_15_1349,piloto1,2020.2.5,60.006900795491035,
1000,0.02,imagenes/Canelazo.png,0.6730479360767814,None,0,3,3,2,0,9,9,22,,,222.60131598000007,223.60107229999267,223.60107229999267,None,None,None,223.60107229999267,None,,,,,,,,,,,,,r,001,2020_Dec_15_1349,piloto1,2020.2.5,60.006900795491035,
1000,0.02,imagenes/Popetas.jpg,0.9621625733302204,None,0,3,3,2,0,10,10,16,,,225.70131236000742,None,226.6840535999945,225.6911315000034,3.565104166666667,1.719471500007785,226.6840535999945,225.6911315000034,,,,,,,,,,,,,r,001,2020_Dec_15_1349,piloto1,2020.2.5,60.006900795491035,
1000,0.02,imagenes/Croissant.jpg,0.5824748589948932,None,0,3,3,2,0,11,11,5,,,227.48425571999397,228.4841613000026,228.4841613000026,None,None,None,228.4841613000026,None,,,,,,,,,,,,,r,001,2020_Dec_15_1349,piloto1,2020.2.5,60.006900795491035,
1000,0.02,imagenes/Brocoli.jpg,0.24293074945529525,None,0,3,3,2,0,12,12,21,,,230.50063775999587,231.50023459999647,231.48381409999274,230.4928329999966,3.565104166666667,2.3515284000022803,231.48381409999274,230.4928329999966,,,,,,,,,,,,,r,001,2020_Dec_15_1349,piloto1,2020.2.5,60.006900795491035,
1000,0.02,imagenes/Papas-limon.jpg,0.5280798509093595,None,0,3,3,2,0,13,13,14,,,232.8838183600048,None,233.88384989999759,None,3.565104166666667,1.691457699998864,233.88384989999759,None,,,,,,,,,,,,,r,001,2020_Dec_15_1349,piloto1,2020.2.5,60.006900795491035,
1000,0.02,imagenes/Muffin de banano.png,0.9610615059009696,None,0,3,3,2,0,14,14,25,,,234.6841535799991,None,235.68394820000685,None,3.565104166666667,1.9720572999940487,235.68394820000685,None,,,,,,,,,,,,,r,001,2020_Dec_15_1349,piloto1,2020.2.5,60.006900795491035,
1000,0.02,imagenes/Rosquitas (1).jpg,0.024090340010977873,None,0,3,3,2,0,15,15,17,,,236.7841943599953,None,237.75036069999624,None,3.565104166666667,2.0536529999953927,237.75036069999624,None,,,,,,,,,,,,,r,001,2020_Dec_15_1349,piloto1,2020.2.5,60.006900795491035,
1000,0.02,imagenes/Galletas Tosh.jpg,0.9129693753280027,None,0,3,3,2,0,16,16,6,,,238.90049972000125,None,239.88356790000398,None,3.565104166666667,1.7326470999978483,239.88356790000398,None,,,,,,,,,,,,,r,001,2020_Dec_15_1349,piloto1,2020.2.5,60.006900795491035,
1000,0.02,imagenes/Rollo de queso.png,0.9201641182756888,None,0,3,3,2,0,17,17,33,,,240.71710170000733,241.7169445000036,241.7003388000012,None,3.565104166666667,1.5804541999968933,241.7003388000012,None,,,,,,,,,,,,,r,001,2020_Dec_15_1349,piloto1,2020.2.5,60.006900795491035,
1000,0.02,imagenes/Chocoramo.jfif.jpg,0.7425528559884101,None,0,3,3,2,0,18,18,4,,,242.3839008000068,None,243.3672024999978,None,3.565104166666667,1.8343578999920283,243.3672024999978,None,,,,,,,,,,,,,r,001,2020_Dec_15_1349,piloto1,2020.2.5,60.006900795491035,
1000,0.02,imagenes/Rollos de canela.png,0.2610974409574519,None,0,3,3,2,0,19,19,34,,,244.26676644000398,None,245.26657839999825,None,3.565104166666667,1.9611910000094213,245.26657839999825,None,,,,,,,,,,,,,r,001,2020_Dec_15_1349,piloto1,2020.2.5,60.006900795491035,
1000,0.02,imagenes/Kiwi.jpg,0.3929145850942286,None,0,3,3,2,0,20,20,8,,,246.26666736000624,247.26643160000094,247.24973229999887,None,3.565104166666667,2.4495278999966104,247.24973229999887,None,,,,,,,,,,,,,r,001,2020_Dec_15_1349,piloto1,2020.2.5,60.006900795491035,
1000,0.02,imagenes/Papas-naturales.jpg,0.37590629905521566,None,0,3,3,2,0,21,21,13,,,248.74978355999627,249.74985300000117,249.74985300000117,None,3.565104166666667,1.6074528000026476,249.74985300000117,None,,,,,,,,,,,,,r,001,2020_Dec_15_1349,piloto1,2020.2.5,60.006900795491035,
1000,0.02,imagenes/Alpinito.jpg,0.7416150880621702,None,0,3,3,2,0,22,22,0,,,250.4499203000014,None,251.43327649999992,None,3.565104166666667,1.9486310000065714,251.43327649999992,None,,,,,,,,,,,,,r,001,2020_Dec_15_1349,piloto1,2020.2.5,60.006900795491035,
1000,0.02,imagenes/pistachos.jpg,0.7450869742741464,None,0,3,3,2,0,23,23,30,,,252.41631487999402,253.41617589999805,253.41617589999805,None,3.565104166666667,1.9086897999950452,253.41617589999805,None,,,,,,,,,,,,,r,001,2020_Dec_15_1349,piloto1,2020.2.5,60.006900795491035,
1000,0.02,imagenes/Brownie.jpg,0.2838924074864093,None,0,3,3,2,0,24,24,3,,,254.4335741799965,None,255.41621969999687,None,None,None,255.41621969999687,None,,,,,,,,,,,,,r,001,2020_Dec_15_1349,piloto1,2020.2.5,60.006900795491035,
1000,0.02,imagenes/salchicha hojaldrada.jpg,0.7119773165481526,None,0,3,3,2,0,25,25,35,,,257.41609058000324,258.41571549999935,258.41571549999935,257.41787119999935,3.565104166666667,2.374971600002027,258.41571549999935,257.41787119999935,,,,,,,,,,,,,r,001,2020_Dec_15_1349,piloto1,2020.2.5,60.006900795491035,
1000,0.02,imagenes/Papas-pollo.jpg,0.08373485417902837,None,0,3,3,2,0,26,26,15,,,259.8326264600066,None,260.8329265000066,None,3.565104166666667,1.7414419999986421,260.8329265000066,None,,,,,,,,,,,,,r,001,2020_Dec_15_1349,piloto1,2020.2.5,60.006900795491035,
1000,0.02,imagenes/Leche-de-almendras.jpg,0.3886559457994673,None,0,3,3,2,0,27,27,9,,,261.69935575999557,None,262.6823386000033,None,3.565104166666667,1.5360694999981206,262.6823386000033,None,,,,,,,,,,,,,r,001,2020_Dec_15_1349,piloto1,2020.2.5,60.006900795491035,
1000,0.02,imagenes/Nutella (1).jpg,0.8826531883338111,None,0,3,3,2,0,28,28,12,,,263.2658133599937,264.26544780000404,264.26544780000404,None,3.565104166666667,1.689186299990979,264.26544780000404,None,,,,,,,,,,,,,r,001,2020_Dec_15_1349,piloto1,2020.2.5,60.006900795491035,
1000,0.02,imagenes/Chontaduro.png,0.8693553300418813,None,0,3,3,2,0,29,29,23,,,265.01571073999804,266.0163625999994,265.99894669999776,None,3.565104166666667,1.234418399995775,265.99894669999776,None,,,,,,,,,,,,,r,001,2020_Dec_15_1349,piloto1,2020.2.5,60.006900795491035,
1000,0.02,imagenes/Papas picantes.jpg,0.524978898672612,None,0,3,3,2,0,30,30,27,,,266.2653781799978,None,267.26549089999753,None,3.565104166666667,1.73017969999637,267.26549089999753,None,,,,,,,,,,,,,r,001,2020_Dec_15_1349,piloto1,2020.2.5,60.006900795491035,
1000,0.02,imagenes/Yogurt-alpina.jpg,0.5445152936222175,None,0,3,3,2,0,31,31,18,,,268.0490741399961,None,269.03218890000426,None,3.565104166666667,1.5507150000048568,269.03218890000426,None,,,,,,,,,,,,,r,001,2020_Dec_15_1349,piloto1,2020.2.5,60.006900795491035,
1000,0.02,imagenes/Pandebono.png,0.8988574378129985,None,0,3,3,2,0,32,32,26,,,269.66570802000064,None,270.6485868000018,None,3.565104166666667,1.7364852000027895,270.6485868000018,None,,,,,,,,,,,,,r,001,2020_Dec_15_1349,piloto1,2020.2.5,60.006900795491035,
1000,0.02,imagenes/Pizza.png,0.21192443516553439,None,0,3,3,2,0,33,33,31,,,271.44888114000497,None,272.4319671999983,None,3.565104166666667,1.2342846999963513,272.4319671999983,None,,,,,,,,,,,,,r,001,2020_Dec_15_1349,piloto1,2020.2.5,60.006900795491035,
1000,0.02,imagenes/Banano.jpeg,0.2267656716538785,None,0,3,3,2,0,34,34,1,,,272.71552195999834,None,273.68180360000406,None,3.565104166666667,1.501103200003854,273.68180360000406,None,,,,,,,,,,,,,r,001,2020_Dec_15_1349,piloto1,2020.2.5,60.006900795491035,
1000,0.02,imagenes/Almojabanas.png,0.6725051200713246,None,0,3,3,2,0,35,35,20,,,274.2653894399962,275.2652107000031,275.24841869999364,None,3.565104166666667,1.4490836999902967,275.24841869999364,None,,,,,,,,,,,,,r,001,2020_Dec_15_1349,piloto1,2020.2.5,60.006900795491035,
1000,0.02,,,,0,3,3,2,,,,,,,,,,,,,,,,,,,,,,,,,,,r,001,2020_Dec_15_1349,piloto1,2020.2.5,60.006900795491035,
,,,,,,,,,,,,,,,,,,,,,,,275.73195800000394,None,276.73267899999337,None,277.7920448999939,None,278.773028399999,None,279.76386829999683,None,281.7953878999979,None,,,,,,,
