Hertz,volumen,Imagenes,Random,Correcto,trials.thisRepN,trials.thisTrialN,trials.thisN,trials.thisIndex,trials_2.thisRepN,trials_2.thisTrialN,trials_2.thisN,trials_2.thisIndex,sound_3.started,sound_3.stopped,Sonido.started,Sonido.stopped,image_2.started,image_2.stopped,slider_2.response,slider_2.rt,slider_2.started,slider_2.stopped,text_2.started,text_2.stopped,text_3.started,text_3.stopped,text.started,text.stopped,text_4.started,text_4.stopped,image.started,image.stopped,texto_final.started,texto_final.stopped,participant,session,date,expName,psychopyVersion,frameRate,
1000,0.02,imagenes/Yogurt-alpina.jpg,0.5445152936222175,None,0,0,0,2,0,0,0,18,13.098940249993756,None,23.250345450000896,None,24.31477109999105,None,3.805989583333333,1.6951920999999857,24.31477109999105,None,,,,,,,,,,,,,Sebastian,001,2020_Dec_15_1432,piloto1,2020.2.5,59.92954682375182,
1000,0.02,imagenes/Pizza.png,0.21192443516553439,None,0,0,0,2,0,1,1,31,,,24.984157099990988,None,25.98418619998847,None,3.649739583333333,1.2936577000073157,25.98418619998847,None,,,,,,,,,,,,,Sebastian,001,2020_Dec_15_1432,piloto1,2020.2.5,59.92954682375182,
1000,0.02,imagenes/bon-bon-bun.jpg,0.7417452724056987,None,0,0,0,2,0,2,2,2,,,26.333613049997073,None,27.333827599999495,None,3.649739583333333,1.156434899996384,27.333827599999495,None,,,,,,,,,,,,,Sebastian,001,2020_Dec_15_1432,piloto1,2020.2.5,59.92954682375182,
1000,0.02,imagenes/Manzana.jpg,0.4048420327008191,None,0,0,0,2,0,3,3,11,,,27.55000954998977,None,28.535854699992342,None,3.649739583333333,1.163288299998385,28.535854699992342,None,,,,,,,,,,,,,Sebastian,001,2020_Dec_15_1432,piloto1,2020.2.5,59.92954682375182,
1000,0.02,imagenes/Almojabanas.png,0.6725051200713246,None,0,0,0,2,0,4,4,20,,,28.76673525000078,None,29.77322399998957,None,3.649739583333333,1.1414816999895265,29.77322399998957,None,,,,,,,,,,,,,Sebastian,001,2020_Dec_15_1432,piloto1,2020.2.5,59.92954682375182,
1000,0.02,imagenes/pistachos.jpg,0.7450869742741464,None,0,0,0,2,0,5,5,30,,,29.934772549993067,None,30.932694399991306,None,3.649739583333333,1.1921611000143457,30.932694399991306,None,,,,,,,,,,,,,Sebastian,001,2020_Dec_15_1432,piloto1,2020.2.5,59.92954682375182,
1000,0.02,imagenes/Brownie.jpg,0.2838924074864093,None,0,0,0,2,0,6,6,3,,,31.20173139999388,None,32.17172159999609,None,3.649739583333333,1.2866185000020778,32.17172159999609,None,,,,,,,,,,,,,Sebastian,001,2020_Dec_15_1432,piloto1,2020.2.5,59.92954682375182,
1000,0.02,imagenes/Pandebono.png,0.8988574378129985,None,0,0,0,2,0,7,7,26,,,32.5179187999951,33.52043039999262,33.50333199999295,None,3.649739583333333,1.2443438000045717,33.50333199999295,None,,,,,,,,,,,,,Sebastian,001,2020_Dec_15_1432,piloto1,2020.2.5,59.92954682375182,
1000,0.02,imagenes/salchicha hojaldrada.jpg,0.7119773165481526,None,0,0,0,2,0,8,8,35,,,33.78490974999586,34.78567440000188,34.76965279999422,None,3.649739583333333,1.2280813999968814,34.76965279999422,None,,,,,,,,,,,,,Sebastian,001,2020_Dec_15_1432,piloto1,2020.2.5,59.92954682375182,
1000,0.02,imagenes/Galletas-festival.jpg,0.11306074364032936,None,0,0,0,2,0,9,9,7,,,35.05145769999072,36.05311100000108,36.035879399991245,None,3.649739583333333,1.3293002999998862,36.035879399991245,None,,,,,,,,,,,,,Sebastian,001,2020_Dec_15_1432,piloto1,2020.2.5,59.92954682375182,
1000,0.02,imagenes/Nutella (1).jpg,0.8826531883338111,None,0,0,0,2,0,10,10,12,,,36.40201644999179,None,37.40041489999567,None,3.649739583333333,1.4040903999994043,37.40041489999567,None,,,,,,,,,,,,,Sebastian,001,2020_Dec_15_1432,piloto1,2020.2.5,59.92954682375182,
1000,0.02,imagenes/Rosquitas (1).jpg,0.024090340010977873,None,0,0,0,2,0,11,11,17,,,37.84992610000191,38.850303599989275,38.850303599989275,None,3.649739583333333,1.2915601999993669,38.850303599989275,None,,,,,,,,,,,,,Sebastian,001,2020_Dec_15_1432,piloto1,2020.2.5,59.92954682375182,
1000,0.02,imagenes/Chocoramo.jfif.jpg,0.7425528559884101,None,0,0,0,2,0,12,12,4,,,39.18350599999249,40.18351579998853,40.18351579998853,None,3.662760416666667,1.2219811999966623,40.18351579998853,None,,,,,,,,,,,,,Sebastian,001,2020_Dec_15_1432,piloto1,2020.2.5,59.92954682375182,
1000,0.02,imagenes/Papas picantes.jpg,0.524978898672612,None,0,0,0,2,0,13,13,27,,,40.43348104999605,41.43321279999509,41.416847699991195,None,3.662760416666667,1.260096700003487,41.416847699991195,None,,,,,,,,,,,,,Sebastian,001,2020_Dec_15_1432,piloto1,2020.2.5,59.92954682375182,
1000,0.02,imagenes/Canelazo.png,0.6730479360767814,None,0,0,0,2,0,14,14,22,,,41.749685749995116,None,42.735644499989576,None,3.662760416666667,1.1983865999936825,42.735644499989576,None,,,,,,,,,,,,,Sebastian,001,2020_Dec_15_1432,piloto1,2020.2.5,59.92954682375182,
1000,0.02,imagenes/Popetas.jpg,0.9621625733302204,None,0,0,0,2,0,15,15,16,,,43.01655559999636,44.01632939999399,44.01632939999399,None,3.662760416666667,1.6445858999941265,44.01632939999399,None,,,,,,,,,,,,,Sebastian,001,2020_Dec_15_1432,piloto1,2020.2.5,59.92954682375182,
1000,0.02,imagenes/Rollos de canela.png,0.2610974409574519,None,0,0,0,2,0,16,16,34,,,44.69961099999492,None,45.683257600001525,None,3.662760416666667,1.1488332000008086,45.683257600001525,None,,,,,,,,,,,,,Sebastian,001,2020_Dec_15_1432,piloto1,2020.2.5,59.92954682375182,
1000,0.02,imagenes/Kiwi.jpg,0.3929145850942286,None,0,0,0,2,0,17,17,8,,,45.866552149989005,46.86622559999523,46.86622559999523,None,3.662760416666667,1.1755780999956187,46.86622559999523,None,,,,,,,,,,,,,Sebastian,001,2020_Dec_15_1432,piloto1,2020.2.5,59.92954682375182,
1000,0.02,imagenes/Mango.jpeg,0.4341155418941499,None,0,0,0,2,0,18,18,10,,,47.08311030000041,None,48.065958299994236,None,3.662760416666667,1.2311101999948733,48.065958299994236,None,,,,,,,,,,,,,Sebastian,001,2020_Dec_15_1432,piloto1,2020.2.5,59.92954682375182,
1000,0.02,imagenes/Muffin de banano.png,0.9610615059009696,None,0,0,0,2,0,19,19,25,,,48.36580554999964,None,49.35189239999454,None,3.662760416666667,1.098834899996291,49.35189239999454,None,,,,,,,,,,,,,Sebastian,001,2020_Dec_15_1432,piloto1,2020.2.5,59.92954682375182,
1000,0.02,imagenes/Papas-limon.jpg,0.5280798509093595,None,0,0,0,2,0,20,20,14,,,49.482713849992436,None,50.482798799988814,None,3.662760416666667,1.1722887000069022,50.482798799988814,None,,,,,,,,,,,,,Sebastian,001,2020_Dec_15_1432,piloto1,2020.2.5,59.92954682375182,
1000,0.02,imagenes/Coliflor.jpg,0.3640740491088985,None,0,0,0,2,0,21,21,24,,,50.682563249992384,51.68254929999239,51.68254929999239,None,3.662760416666667,1.6045391999941785,51.68254929999239,None,,,,,,,,,,,,,Sebastian,001,2020_Dec_15_1432,piloto1,2020.2.5,59.92954682375182,
1000,0.02,imagenes/Pizzetas.png,0.3295951589873042,None,0,0,0,2,0,22,22,32,,,52.33257489999815,53.33266929999809,53.33266929999809,None,3.662760416666667,1.1433947000041371,53.33266929999809,None,,,,,,,,,,,,,Sebastian,001,2020_Dec_15_1432,piloto1,2020.2.5,59.92954682375182,
1000,0.02,imagenes/Pepinillos.png,0.0038966441241518046,None,0,0,0,2,0,23,23,28,,,53.53219094999222,54.5326522999967,54.5326522999967,None,3.662760416666667,1.1898235999979079,54.5326522999967,None,,,,,,,,,,,,,Sebastian,001,2020_Dec_15_1432,piloto1,2020.2.5,59.92954682375182,
1000,0.02,imagenes/Rollo de queso.png,0.9201641182756888,None,0,0,0,2,0,24,24,33,,,54.765449299992184,None,55.7657435000001,None,3.662760416666667,1.041663800002425,55.7657435000001,None,,,,,,,,,,,,,Sebastian,001,2020_Dec_15_1432,piloto1,2020.2.5,59.92954682375182,
1000,0.02,imagenes/Banano.jpeg,0.2267656716538785,None,0,0,0,2,0,25,25,1,,,55.8487012999889,56.84938469999179,56.83264949999284,None,3.662760416666667,1.734687500007567,56.83264949999284,None,,,,,,,,,,,,,Sebastian,001,2020_Dec_15_1432,piloto1,2020.2.5,59.92954682375182,
1000,0.02,imagenes/Brocoli.jpg,0.24293074945529525,None,0,0,0,2,0,26,26,21,,,57.5988899499891,None,58.5991362999921,None,3.662760416666667,1.6273953000054462,58.5991362999921,None,,,,,,,,,,,,,Sebastian,001,2020_Dec_15_1432,piloto1,2020.2.5,59.92954682375182,
1000,0.02,imagenes/Papas-pollo.jpg,0.08373485417902837,None,0,0,0,2,0,27,27,15,,,59.24869124999823,60.24903939999058,60.24903939999058,None,3.662760416666667,1.2579805999994278,60.24903939999058,None,,,,,,,,,,,,,Sebastian,001,2020_Dec_15_1432,piloto1,2020.2.5,59.92954682375182,
1000,0.02,imagenes/Galletas Tosh.jpg,0.9129693753280027,None,0,0,0,2,0,28,28,6,,,60.54910349999264,61.549007800000254,61.549007800000254,None,3.662760416666667,1.3068562999978894,61.549007800000254,None,,,,,,,,,,,,,Sebastian,001,2020_Dec_15_1432,piloto1,2020.2.5,59.92954682375182,
1000,0.02,imagenes/Papas-naturales.jpg,0.37590629905521566,None,0,0,0,2,0,29,29,13,,,61.88206464999094,62.88231019998784,62.88231019998784,None,3.662760416666667,1.7538403000071412,62.88231019998784,None,,,,,,,,,,,,,Sebastian,001,2020_Dec_15_1432,piloto1,2020.2.5,59.92954682375182,
1000,0.02,imagenes/Pescadito.png,0.7172825011486081,None,0,0,0,2,0,30,30,29,,,63.665025949997656,64.66544359999534,64.66544359999534,None,3.662760416666667,1.6713865000056103,64.66544359999534,None,,,,,,,,,,,,,Sebastian,001,2020_Dec_15_1432,piloto1,2020.2.5,59.92954682375182,
1000,0.02,imagenes/Croissant.jpg,0.5824748589948932,None,0,0,0,2,0,31,31,5,,,65.38207099999127,66.38229049999791,66.38229049999791,None,3.662760416666667,1.1713139000057708,66.38229049999791,None,,,,,,,,,,,,,Sebastian,001,2020_Dec_15_1432,piloto1,2020.2.5,59.92954682375182,
1000,0.02,imagenes/Chontaduro.png,0.8693553300418813,None,0,0,0,2,0,32,32,23,,,66.58180024999747,67.5822865999944,67.5822865999944,None,3.662760416666667,1.2541732999961823,67.5822865999944,None,,,,,,,,,,,,,Sebastian,001,2020_Dec_15_1432,piloto1,2020.2.5,59.92954682375182,
1000,0.02,imagenes/Alpinito.jpg,0.7416150880621702,None,0,0,0,2,0,33,33,0,,,67.89858455000068,68.89852930000052,68.89852930000052,None,3.662760416666667,1.322512300001108,68.89852930000052,None,,,,,,,,,,,,,Sebastian,001,2020_Dec_15_1432,piloto1,2020.2.5,59.92954682375182,
1000,0.02,imagenes/Leche-de-almendras.jpg,0.3886559457994673,None,0,0,0,2,0,34,34,9,,,69.34831504999457,70.34848369999963,70.34848369999963,None,3.662760416666667,1.1766086999996332,70.34848369999963,None,,,,,,,,,,,,,Sebastian,001,2020_Dec_15_1432,piloto1,2020.2.5,59.92954682375182,
1000,0.02,imagenes/Uvas.jpg,0.4959291644143431,None,0,0,0,2,0,35,35,19,,,70.56530629999762,None,71.54812909998873,None,3.662760416666667,1.2521354000054998,71.54812909998873,None,,,,,,,,,,,,,Sebastian,001,2020_Dec_15_1432,piloto1,2020.2.5,59.92954682375182,
1000,0.02,,,,0,0,0,2,,,,,,,,,,,,,,,,,,,,,,,,,,,Sebastian,001,2020_Dec_15_1432,piloto1,2020.2.5,59.92954682375182,
1000,0.0,imagenes/Papas picantes.jpg,0.524978898672612,None,0,1,1,3,0,0,0,27,,,71.84827719999012,None,72.8318239999935,None,3.662760416666667,1.3985017999948468,72.8318239999935,None,,,,,,,,,,,,,Sebastian,001,2020_Dec_15_1432,piloto1,2020.2.5,59.92954682375182,
1000,0.0,imagenes/Pizza.png,0.21192443516553439,None,0,1,1,3,0,1,1,31,,,73.2816541999986,None,74.2658328999969,None,3.662760416666667,1.3355432999960613,74.2658328999969,None,,,,,,,,,,,,,Sebastian,001,2020_Dec_15_1432,piloto1,2020.2.5,59.92954682375182,
1000,0.0,imagenes/Nutella (1).jpg,0.8826531883338111,None,0,1,1,3,0,2,2,12,,,74.63150344999595,None,75.6319547000021,None,3.662760416666667,1.2556562999961898,75.6319547000021,None,,,,,,,,,,,,,Sebastian,001,2020_Dec_15_1432,piloto1,2020.2.5,59.92954682375182,
1000,0.0,imagenes/Almojabanas.png,0.6725051200713246,None,0,1,1,3,0,3,3,20,,,75.948065649996,76.94828859998961,76.94828859998961,None,3.662760416666667,1.0746881000086432,76.94828859998961,None,,,,,,,,,,,,,Sebastian,001,2020_Dec_15_1432,piloto1,2020.2.5,59.92954682375182,
1000,0.0,imagenes/Brocoli.jpg,0.24293074945529525,None,0,1,1,3,0,4,4,21,,,77.04823245000007,78.04796569999598,78.04796569999598,None,3.662760416666667,2.4428768000070704,78.04796569999598,None,,,,,,,,,,,,,Sebastian,001,2020_Dec_15_1432,piloto1,2020.2.5,59.92954682375182,
1000,0.0,imagenes/Manzana.jpg,0.4048420327008191,None,0,1,1,3,0,5,5,11,,,79.5313175999967,80.53175099998771,80.53175099998771,None,3.662760416666667,1.5042851000034716,80.53175099998771,None,,,,,,,,,,,,,Sebastian,001,2020_Dec_15_1432,piloto1,2020.2.5,59.92954682375182,
1000,0.0,imagenes/Brownie.jpg,0.2838924074864093,None,0,1,1,3,0,6,6,3,,,81.09769804999961,82.09798589999264,82.08127249999961,None,3.662760416666667,1.4814425999938976,82.08127249999961,None,,,,,,,,,,,,,Sebastian,001,2020_Dec_15_1432,piloto1,2020.2.5,59.92954682375182,
1000,0.0,imagenes/Galletas Tosh.jpg,0.9129693753280027,None,0,1,1,3,0,7,7,6,,,82.63092064998783,None,83.61628349999955,None,3.662760416666667,1.4850622000085423,83.61628349999955,None,,,,,,,,,,,,,Sebastian,001,2020_Dec_15_1432,piloto1,2020.2.5,59.92954682375182,
1000,0.0,imagenes/Yogurt-alpina.jpg,0.5445152936222175,None,0,1,1,3,0,8,8,18,,,84.13074004998926,85.13112049999472,85.13112049999472,None,3.662760416666667,1.5582375000085449,85.13112049999472,None,,,,,,,,,,,,,Sebastian,001,2020_Dec_15_1432,piloto1,2020.2.5,59.92954682375182,
1000,0.0,imagenes/Papas-limon.jpg,0.5280798509093595,None,0,1,1,3,0,9,9,14,,,85.7139613499996,86.71419519999472,86.71419519999472,None,3.662760416666667,1.559964800006128,86.71419519999472,None,,,,,,,,,,,,,Sebastian,001,2020_Dec_15_1432,piloto1,2020.2.5,59.92954682375182,
1000,0.0,imagenes/Pepinillos.png,0.0038966441241518046,None,0,1,1,3,0,10,10,28,,,87.31445309999108,None,88.31427989999065,None,3.662760416666667,1.3910255000082543,88.31427989999065,None,,,,,,,,,,,,,Sebastian,001,2020_Dec_15_1432,piloto1,2020.2.5,59.92954682375182,
1000,0.0,imagenes/Rosquitas (1).jpg,0.024090340010977873,None,0,1,1,3,0,11,11,17,,,88.74749329999614,89.74754719999328,89.74754719999328,None,3.662760416666667,1.4595935999968788,89.74754719999328,None,,,,,,,,,,,,,Sebastian,001,2020_Dec_15_1432,piloto1,2020.2.5,59.92954682375182,
1000,0.0,imagenes/Chontaduro.png,0.8693553300418813,None,0,1,1,3,0,12,12,23,,,90.23061434999836,None,91.23074499999348,None,3.662760416666667,1.020542199999909,91.23074499999348,None,,,,,,,,,,,,,Sebastian,001,2020_Dec_15_1432,piloto1,2020.2.5,59.92954682375182,
1000,0.0,imagenes/Coliflor.jpg,0.3640740491088985,None,0,1,1,3,0,13,13,24,,,91.28057774999907,92.28077519999351,92.28077519999351,None,3.662760416666667,1.4868835999950534,92.28077519999351,None,,,,,,,,,,,,,Sebastian,001,2020_Dec_15_1432,piloto1,2020.2.5,59.92954682375182,
1000,0.0,imagenes/Chocoramo.jfif.jpg,0.7425528559884101,None,0,1,1,3,0,14,14,4,,,92.83028594999779,None,93.81605959999433,None,3.662760416666667,1.4962744000076782,93.81605959999433,None,,,,,,,,,,,,,Sebastian,001,2020_Dec_15_1432,piloto1,2020.2.5,59.92954682375182,
1000,0.0,imagenes/Pandebono.png,0.8988574378129985,None,0,1,1,3,0,15,15,26,,,94.36357229999558,95.36399299999175,95.34758099999453,None,3.662760416666667,1.5942673999961698,95.34758099999453,None,,,,,,,,,,,,,Sebastian,001,2020_Dec_15_1432,piloto1,2020.2.5,59.92954682375182,
1000,0.0,imagenes/Leche-de-almendras.jpg,0.3886559457994673,None,0,1,1,3,0,16,16,9,,,96.0801191499908,97.08043439999165,97.08043439999165,None,3.662760416666667,1.4060633000044618,97.08043439999165,None,,,,,,,,,,,,,Sebastian,001,2020_Dec_15_1432,piloto1,2020.2.5,59.92954682375182,
1000,0.0,imagenes/Papas-pollo.jpg,0.08373485417902837,None,0,1,1,3,0,17,17,15,,,97.51368464999105,98.5135089999967,98.5135089999967,None,3.662760416666667,1.8722032999939984,98.5135089999967,None,,,,,,,,,,,,,Sebastian,001,2020_Dec_15_1432,piloto1,2020.2.5,59.92954682375182,
1000,0.0,imagenes/pistachos.jpg,0.7450869742741464,None,0,1,1,3,0,18,18,30,,,99.41356625000044,100.41391389998898,100.3973430999904,None,3.662760416666667,1.479997899994487,100.3973430999904,None,,,,,,,,,,,,,Sebastian,001,2020_Dec_15_1432,piloto1,2020.2.5,59.92954682375182,
1000,0.0,imagenes/bon-bon-bun.jpg,0.7417452724056987,None,0,1,1,3,0,19,19,2,,,100.93005319999648,101.93060009999317,101.93060009999317,None,3.662760416666667,1.3251482999912696,101.93060009999317,None,,,,,,,,,,,,,Sebastian,001,2020_Dec_15_1432,piloto1,2020.2.5,59.92954682375182,
1000,0.0,imagenes/Croissant.jpg,0.5824748589948932,None,0,1,1,3,0,20,20,5,,,102.29658239998972,103.29708249999385,103.29708249999385,None,3.662760416666667,1.556008399988059,103.29708249999385,None,,,,,,,,,,,,,Sebastian,001,2020_Dec_15_1432,piloto1,2020.2.5,59.92954682375182,
1000,0.0,imagenes/Pizzetas.png,0.3295951589873042,None,0,1,1,3,0,21,21,32,,,103.89660879999283,104.89725429999817,104.88012219998927,None,3.662760416666667,1.0622814999951515,104.88012219998927,None,,,,,,,,,,,,,Sebastian,001,2020_Dec_15_1432,piloto1,2020.2.5,59.92954682375182,
1000,0.0,imagenes/Rollo de queso.png,0.9201641182756888,None,0,1,1,3,0,22,22,33,,,104.99646289999365,None,105.9967578999931,None,3.662760416666667,1.9897444999951404,105.9967578999931,None,,,,,,,,,,,,,Sebastian,001,2020_Dec_15_1432,piloto1,2020.2.5,59.92954682375182,
1000,0.0,imagenes/Galletas-festival.jpg,0.11306074364032936,None,0,1,1,3,0,23,23,7,,,107.02973289999355,None,108.01328459999058,None,3.662760416666667,1.6448786999972071,108.01328459999058,None,,,,,,,,,,,,,Sebastian,001,2020_Dec_15_1432,piloto1,2020.2.5,59.92954682375182,
1000,0.0,imagenes/Alpinito.jpg,0.7416150880621702,None,0,1,1,3,0,24,24,0,,,108.74672189999255,109.74661419999029,109.72997629999008,None,3.662760416666667,1.6973473999969428,109.72997629999008,None,,,,,,,,,,,,,Sebastian,001,2020_Dec_15_1432,piloto1,2020.2.5,59.92954682375182,
1000,0.0,imagenes/Uvas.jpg,0.4959291644143431,None,0,1,1,3,0,25,25,19,,,110.47980110000063,111.48009060000186,111.4634425999975,None,3.662760416666667,1.7183421999943675,111.4634425999975,None,,,,,,,,,,,,,Sebastian,001,2020_Dec_15_1432,piloto1,2020.2.5,59.92954682375182,
1000,0.0,imagenes/Kiwi.jpg,0.3929145850942286,None,0,1,1,3,0,26,26,8,,,112.21346014999581,113.21334579998802,113.21334579998802,None,3.662760416666667,1.5095465000049444,113.21334579998802,None,,,,,,,,,,,,,Sebastian,001,2020_Dec_15_1432,piloto1,2020.2.5,59.92954682375182,
1000,0.0,imagenes/Rollos de canela.png,0.2610974409574519,None,0,1,1,3,0,27,27,34,,,113.76311249999563,None,114.74637049999728,None,3.662760416666667,1.5166598999931011,114.74637049999728,None,,,,,,,,,,,,,Sebastian,001,2020_Dec_15_1432,piloto1,2020.2.5,59.92954682375182,
1000,0.0,imagenes/Canelazo.png,0.6730479360767814,None,0,1,1,3,0,28,28,22,,,115.32969444999036,None,116.32987299999513,None,3.662760416666667,1.5764458999910858,116.32987299999513,None,,,,,,,,,,,,,Sebastian,001,2020_Dec_15_1432,piloto1,2020.2.5,59.92954682375182,
1000,0.0,imagenes/Banano.jpeg,0.2267656716538785,None,0,1,1,3,0,29,29,1,,,116.94581569999573,117.9461861000018,117.92984189999697,None,3.610677083333333,1.6681482999993023,117.92984189999697,None,,,,,,,,,,,,,Sebastian,001,2020_Dec_15_1432,piloto1,2020.2.5,59.92954682375182,
1000,0.0,imagenes/Papas-naturales.jpg,0.37590629905521566,None,0,1,1,3,0,30,30,13,,,118.62933334998816,None,119.62974340000073,None,3.6171875,1.3555598000093596,119.62974340000073,None,,,,,,,,,,,,,Sebastian,001,2020_Dec_15_1432,piloto1,2020.2.5,59.92954682375182,
1000,0.0,imagenes/Pescadito.png,0.7172825011486081,None,0,1,1,3,0,31,31,29,,,120.02939999999072,121.0298186,121.01274339998781,None,3.688802083333333,1.3820063000021037,121.01274339998781,None,,,,,,,,,,,,,Sebastian,001,2020_Dec_15_1432,piloto1,2020.2.5,59.92954682375182,
1000,0.0,imagenes/Muffin de banano.png,0.9610615059009696,None,0,1,1,3,0,32,32,25,,,121.46235914999998,None,122.44591739999305,None,3.623697916666667,1.2646423999976832,122.44591739999305,None,,,,,,,,,,,,,Sebastian,001,2020_Dec_15_1432,piloto1,2020.2.5,59.92954682375182,
1000,0.0,imagenes/Popetas.jpg,0.9621625733302204,None,0,1,1,3,0,33,33,16,,,122.77929704998824,123.77963819999422,123.7627930000017,None,3.623697916666667,1.2979323000035947,123.7627930000017,None,,,,,,,,,,,,,Sebastian,001,2020_Dec_15_1432,piloto1,2020.2.5,59.92954682375182,
1000,0.0,imagenes/salchicha hojaldrada.jpg,0.7119773165481526,None,0,1,1,3,0,34,34,35,,,124.09601444999426,125.0956201999943,125.0788889999967,None,3.623697916666667,1.3292698000004748,125.0788889999967,None,,,,,,,,,,,,,Sebastian,001,2020_Dec_15_1432,piloto1,2020.2.5,59.92954682375182,
1000,0.0,imagenes/Mango.jpeg,0.4341155418941499,None,0,1,1,3,0,35,35,10,,,125.47900095000078,126.47916999999143,126.46250069999951,None,3.623697916666667,1.1512024999974528,126.46250069999951,None,,,,,,,,,,,,,Sebastian,001,2020_Dec_15_1432,piloto1,2020.2.5,59.92954682375182,
1000,0.0,,,,0,1,1,3,,,,,,,,,,,,,,,,,,,,,,,,,,,Sebastian,001,2020_Dec_15_1432,piloto1,2020.2.5,59.92954682375182,
1500,0.02,imagenes/Papas-naturales.jpg,0.37590629905521566,None,0,2,2,1,0,0,0,13,,,126.66201349998883,None,127.64586429999326,None,3.623697916666667,1.385440899990499,127.64586429999326,None,,,,,,,,,,,,,Sebastian,001,2020_Dec_15_1432,piloto1,2020.2.5,59.92954682375182,
1500,0.02,imagenes/Chontaduro.png,0.8693553300418813,None,0,2,2,1,0,1,1,23,,,128.07913679999763,129.07918649999192,129.04577679999056,None,3.610677083333333,1.419974700009334,129.04577679999056,None,,,,,,,,,,,,,Sebastian,001,2020_Dec_15_1432,piloto1,2020.2.5,59.92954682375182,
1500,0.02,imagenes/Rollo de queso.png,0.9201641182756888,None,0,2,2,1,0,2,2,33,,,129.52919029999464,130.5291625999962,130.5291625999962,None,3.610677083333333,1.5386810000054538,130.5291625999962,None,,,,,,,,,,,,,Sebastian,001,2020_Dec_15_1432,piloto1,2020.2.5,59.92954682375182,
1500,0.02,imagenes/Banano.jpeg,0.2267656716538785,None,0,2,2,1,0,3,3,1,,,131.11203139999122,None,132.09542209999927,None,3.610677083333333,1.2517248000076506,132.09542209999927,None,,,,,,,,,,,,,Sebastian,001,2020_Dec_15_1432,piloto1,2020.2.5,59.92954682375182,
1500,0.02,imagenes/Brocoli.jpg,0.24293074945529525,None,0,2,2,1,0,4,4,21,,,132.37872514999907,133.3788116999931,133.3788116999931,None,3.610677083333333,1.5598633000045083,133.3788116999931,None,,,,,,,,,,,,,Sebastian,001,2020_Dec_15_1432,piloto1,2020.2.5,59.92954682375182,
1500,0.02,imagenes/Pizza.png,0.21192443516553439,None,0,2,2,1,0,5,5,31,,,133.97850659999528,None,134.94637079999666,None,3.610677083333333,1.3865777000028174,134.94637079999666,None,,,,,,,,,,,,,Sebastian,001,2020_Dec_15_1432,piloto1,2020.2.5,59.92954682375182,
1500,0.02,imagenes/Pizzetas.png,0.3295951589873042,None,0,2,2,1,0,6,6,32,,,135.3952803999913,None,136.39527929999167,None,3.610677083333333,1.3066322000086075,136.39527929999167,None,,,,,,,,,,,,,Sebastian,001,2020_Dec_15_1432,piloto1,2020.2.5,59.92954682375182,
1500,0.02,imagenes/Rosquitas (1).jpg,0.024090340010977873,None,0,2,2,1,0,7,7,17,,,136.76186984998785,None,137.7451541999908,None,3.610677083333333,1.4182200000068406,137.7451541999908,None,,,,,,,,,,,,,Sebastian,001,2020_Dec_15_1432,piloto1,2020.2.5,59.92954682375182,
1500,0.02,imagenes/Kiwi.jpg,0.3929145850942286,None,0,2,2,1,0,8,8,8,,,138.2116565999953,None,139.19605749999755,None,3.610677083333333,1.5497657999949297,139.19605749999755,None,,,,,,,,,,,,,Sebastian,001,2020_Dec_15_1432,piloto1,2020.2.5,59.92954682375182,
1500,0.02,imagenes/Almojabanas.png,0.6725051200713246,None,0,2,2,1,0,9,9,20,,,139.8119209500015,140.81166139998822,140.81166139998822,None,3.610677083333333,1.3101100999920163,140.81166139998822,None,,,,,,,,,,,,,Sebastian,001,2020_Dec_15_1432,piloto1,2020.2.5,59.92954682375182,
1500,0.02,imagenes/bon-bon-bun.jpg,0.7417452724056987,None,0,2,2,1,0,10,10,2,,,141.17825394999963,None,142.1459676999948,None,3.610677083333333,1.1696051000035368,142.1459676999948,None,,,,,,,,,,,,,Sebastian,001,2020_Dec_15_1432,piloto1,2020.2.5,59.92954682375182,
1500,0.02,imagenes/Mango.jpeg,0.4341155418941499,None,0,2,2,1,0,11,11,10,,,142.3780843999906,None,143.3785254999966,None,3.610677083333333,1.1763922999962233,143.3785254999966,None,,,,,,,,,,,,,Sebastian,001,2020_Dec_15_1432,piloto1,2020.2.5,59.92954682375182,
1500,0.02,imagenes/salchicha hojaldrada.jpg,0.7119773165481526,None,0,2,2,1,0,12,12,35,,,143.5782479500005,144.5782668999891,144.56197329999122,None,3.610677083333333,1.246953099995153,144.56197329999122,None,,,,,,,,,,,,,Sebastian,001,2020_Dec_15_1432,piloto1,2020.2.5,59.92954682375182,
1500,0.02,imagenes/Nutella (1).jpg,0.8826531883338111,None,0,2,2,1,0,13,13,12,,,144.84477544998953,None,145.84489659999963,None,3.610677083333333,1.2551627999928314,145.84489659999963,None,,,,,,,,,,,,,Sebastian,001,2020_Dec_15_1432,piloto1,2020.2.5,59.92954682375182,
1500,0.02,imagenes/Galletas Tosh.jpg,0.9129693753280027,None,0,2,2,1,0,14,14,6,,,146.16154194998816,None,147.1446147999959,None,3.610677083333333,1.2362946000066586,147.1446147999959,None,,,,,,,,,,,,,Sebastian,001,2020_Dec_15_1432,piloto1,2020.2.5,59.92954682375182,
1500,0.02,imagenes/Coliflor.jpg,0.3640740491088985,None,0,2,2,1,0,15,15,24,,,147.4112443500009,148.41185959998984,148.41185959998984,None,3.610677083333333,1.3043078999908175,148.41185959998984,None,,,,,,,,,,,,,Sebastian,001,2020_Dec_15_1432,piloto1,2020.2.5,59.92954682375182,
1500,0.02,imagenes/Chocoramo.jfif.jpg,0.7425528559884101,None,0,2,2,1,0,16,16,4,,,148.76108129999773,149.76179279999633,149.76179279999633,None,3.6171875,2.288922099993215,149.76179279999633,None,,,,,,,,,,,,,Sebastian,001,2020_Dec_15_1432,piloto1,2020.2.5,59.92954682375182,
1500,0.02,imagenes/Pepinillos.png,0.0038966441241518046,None,0,2,2,1,0,17,17,28,,,151.11098494999314,None,152.09437139998772,None,3.59765625,1.3955035999970278,152.09437139998772,None,,,,,,,,,,,,,Sebastian,001,2020_Dec_15_1432,piloto1,2020.2.5,59.92954682375182,
1500,0.02,imagenes/pistachos.jpg,0.7450869742741464,None,0,2,2,1,0,18,18,30,,,152.52789285000034,153.52791949998937,153.51149589999113,None,3.578125,1.3966758000024129,153.51149589999113,None,,,,,,,,,,,,,Sebastian,001,2020_Dec_15_1432,piloto1,2020.2.5,59.92954682375182,
1500,0.02,imagenes/Croissant.jpg,0.5824748589948932,None,0,2,2,1,0,19,19,5,,,153.96096350000005,154.9610842999973,154.9610842999973,None,3.578125,1.2548166000051424,154.9610842999973,None,,,,,,,,,,,,,Sebastian,001,2020_Dec_15_1432,piloto1,2020.2.5,59.92954682375182,
1500,0.02,imagenes/Uvas.jpg,0.4959291644143431,None,0,2,2,1,0,20,20,19,,,155.2608643999905,None,156.24546259999624,None,3.578125,1.1527032000012696,156.24546259999624,None,,,,,,,,,,,,,Sebastian,001,2020_Dec_15_1432,piloto1,2020.2.5,59.92954682375182,
1500,0.02,imagenes/Canelazo.png,0.6730479360767814,None,0,2,2,1,0,21,21,22,,,156.4777473999973,157.4778812000004,157.46099839999806,None,3.578125,1.0980412000062643,157.46099839999806,None,,,,,,,,,,,,,Sebastian,001,2020_Dec_15_1432,piloto1,2020.2.5,59.92954682375182,
1500,0.02,imagenes/Pescadito.png,0.7172825011486081,None,0,2,2,1,0,22,22,29,,,157.61076119999632,None,158.59552819999226,None,3.578125,1.3633829000027617,158.59552819999226,None,,,,,,,,,,,,,Sebastian,001,2020_Dec_15_1432,piloto1,2020.2.5,59.92954682375182,
1500,0.02,imagenes/Muffin de banano.png,0.9610615059009696,None,0,2,2,1,0,23,23,25,,,159.02737404999934,None,160.0276950999978,None,3.578125,1.0919462000019848,160.0276950999978,None,,,,,,,,,,,,,Sebastian,001,2020_Dec_15_1432,piloto1,2020.2.5,59.92954682375182,
1500,0.02,imagenes/Yogurt-alpina.jpg,0.5445152936222175,None,0,2,2,1,0,24,24,18,,,160.16073280000126,None,161.14406019999296,None,3.578125,1.1521167999890167,161.14406019999296,None,,,,,,,,,,,,,Sebastian,001,2020_Dec_15_1432,piloto1,2020.2.5,59.92954682375182,
1500,0.02,imagenes/Papas picantes.jpg,0.524978898672612,None,0,2,2,1,0,25,25,27,,,161.32751215000025,162.32748300000094,162.3112095999968,None,3.578125,1.1458535999991,162.3112095999968,None,,,,,,,,,,,,,Sebastian,001,2020_Dec_15_1432,piloto1,2020.2.5,59.92954682375182,
1500,0.02,imagenes/Papas-pollo.jpg,0.08373485417902837,None,0,2,2,1,0,26,26,15,,,162.49398324999055,163.4940840999916,163.4940840999916,None,3.578125,1.1578847999917343,163.4940840999916,None,,,,,,,,,,,,,Sebastian,001,2020_Dec_15_1432,piloto1,2020.2.5,59.92954682375182,
1500,0.02,imagenes/Papas-limon.jpg,0.5280798509093595,None,0,2,2,1,0,27,27,14,,,163.69422899999188,None,164.6817555999878,None,3.571614583333333,1.082740099998773,164.6817555999878,None,,,,,,,,,,,,,Sebastian,001,2020_Dec_15_1432,piloto1,2020.2.5,59.92954682375182,
1500,0.02,imagenes/Rollos de canela.png,0.2610974409574519,None,0,2,2,1,0,28,28,34,,,164.81044509998753,None,165.7957172999886,None,3.571614583333333,1.2336435999895912,165.7957172999886,None,,,,,,,,,,,,,Sebastian,001,2020_Dec_15_1432,piloto1,2020.2.5,59.92954682375182,
1500,0.02,imagenes/Pandebono.png,0.8988574378129985,None,0,2,2,1,0,29,29,26,,,166.07687089998797,None,167.06084739998914,None,3.571614583333333,1.3759057999996003,167.06084739998914,None,,,,,,,,,,,,,Sebastian,001,2020_Dec_15_1432,piloto1,2020.2.5,59.92954682375182,
1500,0.02,imagenes/Leche-de-almendras.jpg,0.3886559457994673,None,0,2,2,1,0,30,30,9,,,167.54533539999392,None,168.52704449999146,None,3.571614583333333,1.2436809000064386,168.52704449999146,None,,,,,,,,,,,,,Sebastian,001,2020_Dec_15_1432,piloto1,2020.2.5,59.92954682375182,
1500,0.02,imagenes/Alpinito.jpg,0.7416150880621702,None,0,2,2,1,0,31,31,0,,,168.843552049993,169.84377239999594,169.84377239999594,None,3.571614583333333,1.4437405999924522,169.84377239999594,None,,,,,,,,,,,,,Sebastian,001,2020_Dec_15_1432,piloto1,2020.2.5,59.92954682375182,
1500,0.02,imagenes/Galletas-festival.jpg,0.11306074364032936,None,0,2,2,1,0,32,32,7,,,170.3267483000003,171.32698420000088,171.32698420000088,None,3.571614583333333,1.2928591999952914,171.32698420000088,None,,,,,,,,,,,,,Sebastian,001,2020_Dec_15_1432,piloto1,2020.2.5,59.92954682375182,
1500,0.02,imagenes/Manzana.jpg,0.4048420327008191,None,0,2,2,1,0,33,33,11,,,171.6768249499888,172.676907999994,172.66033779999998,None,3.571614583333333,1.2672687000012957,172.66033779999998,None,,,,,,,,,,,,,Sebastian,001,2020_Dec_15_1432,piloto1,2020.2.5,59.92954682375182,
1500,0.02,imagenes/Popetas.jpg,0.9621625733302204,None,0,2,2,1,0,34,34,16,,,173.02648064999812,174.026887,174.0105681999994,None,3.571614583333333,1.2011675999965519,174.0105681999994,None,,,,,,,,,,,,,Sebastian,001,2020_Dec_15_1432,piloto1,2020.2.5,59.92954682375182,
1500,0.02,imagenes/Brownie.jpg,0.2838924074864093,None,0,2,2,1,0,35,35,3,,,174.27662724998808,None,175.26006299999426,None,3.571614583333333,1.4169187000079546,175.26006299999426,None,,,,,,,,,,,,,Sebastian,001,2020_Dec_15_1432,piloto1,2020.2.5,59.92954682375182,
1500,0.02,,,,0,2,2,1,,,,,,,,,,,,,,,,,,,,,,,,,,,Sebastian,001,2020_Dec_15_1432,piloto1,2020.2.5,59.92954682375182,
400,0.02,imagenes/Kiwi.jpg,0.3929145850942286,None,0,3,3,0,0,0,0,8,,,175.72654629999886,None,176.7099986999965,None,3.571614583333333,1.4116141999984393,176.7099986999965,None,,,,,,,,,,,,,Sebastian,001,2020_Dec_15_1432,piloto1,2020.2.5,59.92954682375182,
400,0.02,imagenes/Brocoli.jpg,0.24293074945529525,None,0,3,3,0,0,1,1,21,,,177.1598177499938,178.16014199999336,178.16014199999336,None,3.571614583333333,1.0935440000030212,178.16014199999336,None,,,,,,,,,,,,,Sebastian,001,2020_Dec_15_1432,piloto1,2020.2.5,59.92954682375182,
400,0.02,imagenes/Nutella (1).jpg,0.8826531883338111,None,0,3,3,0,0,2,2,12,,,178.27642114999907,179.27654199999233,179.27654199999233,None,3.44140625,1.2219955000036862,179.27654199999233,None,,,,,,,,,,,,,Sebastian,001,2020_Dec_15_1432,piloto1,2020.2.5,59.92954682375182,
400,0.02,imagenes/Coliflor.jpg,0.3640740491088985,None,0,3,3,0,0,3,3,24,,,179.54353889999618,None,180.52648529999715,None,3.3502604166666665,1.2860247999924468,180.52648529999715,None,,,,,,,,,,,,,Sebastian,001,2020_Dec_15_1432,piloto1,2020.2.5,59.92954682375182,
400,0.02,imagenes/Papas-naturales.jpg,0.37590629905521566,None,0,3,3,0,0,4,4,13,,,180.84331034999485,181.84292939999432,181.84292939999432,None,3.3502604166666665,1.2379922999971313,181.84292939999432,None,,,,,,,,,,,,,Sebastian,001,2020_Dec_15_1432,piloto1,2020.2.5,59.92954682375182,
400,0.02,imagenes/Yogurt-alpina.jpg,0.5445152936222175,None,0,3,3,0,0,5,5,18,,,182.10950745000008,183.11015290000068,183.11015290000068,None,3.34375,1.2907310000009602,183.11015290000068,None,,,,,,,,,,,,,Sebastian,001,2020_Dec_15_1432,piloto1,2020.2.5,59.92954682375182,
400,0.02,imagenes/Almojabanas.png,0.6725051200713246,None,0,3,3,0,0,6,6,20,,,183.44261789999143,None,184.42625039999257,None,3.34375,1.38053540000692,184.42625039999257,None,,,,,,,,,,,,,Sebastian,001,2020_Dec_15_1432,piloto1,2020.2.5,59.92954682375182,
400,0.02,imagenes/Papas-limon.jpg,0.5280798509093595,None,0,3,3,0,0,7,7,14,,,184.8426191499995,185.84297469999,185.84297469999,None,3.34375,1.7207018000044627,185.84297469999,None,,,,,,,,,,,,,Sebastian,001,2020_Dec_15_1432,piloto1,2020.2.5,59.92954682375182,
400,0.02,imagenes/Papas picantes.jpg,0.524978898672612,None,0,3,3,0,0,8,8,27,,,186.59285994999954,None,187.57617010000104,None,3.34375,1.6129457000060938,187.57617010000104,None,,,,,,,,,,,,,Sebastian,001,2020_Dec_15_1432,piloto1,2020.2.5,59.92954682375182,
400,0.02,imagenes/pistachos.jpg,0.7450869742741464,None,0,3,3,0,0,9,9,30,,,188.2260500499935,189.22587549999298,189.20929439998872,None,3.34375,1.5298024999938207,189.20929439998872,None,,,,,,,,,,,,,Sebastian,001,2020_Dec_15_1432,piloto1,2020.2.5,59.92954682375182,
400,0.02,imagenes/Popetas.jpg,0.9621625733302204,None,0,3,3,0,0,10,10,16,,,189.80921485000144,190.80976219999138,190.80976219999138,None,3.34375,1.1562275000032969,190.80976219999138,None,,,,,,,,,,,,,Sebastian,001,2020_Dec_15_1432,piloto1,2020.2.5,59.92954682375182,
400,0.02,imagenes/Leche-de-almendras.jpg,0.3886559457994673,None,0,3,3,0,0,11,11,9,,,191.07569529999745,192.07595859999128,192.05963699999847,None,3.34375,1.313072300006752,192.05963699999847,None,,,,,,,,,,,,,Sebastian,001,2020_Dec_15_1432,piloto1,2020.2.5,59.92954682375182,
400,0.02,imagenes/Chontaduro.png,0.8693553300418813,None,0,3,3,0,0,12,12,23,,,192.40913764999567,193.40941019999445,193.40941019999445,None,3.34375,1.0541590000066208,193.40941019999445,None,,,,,,,,,,,,,Sebastian,001,2020_Dec_15_1432,piloto1,2020.2.5,59.92954682375182,
400,0.02,imagenes/Galletas-festival.jpg,0.11306074364032936,None,0,3,3,0,0,13,13,7,,,193.50903799999503,None,194.49244909999834,None,3.34375,1.3123540000087814,194.49244909999834,None,,,,,,,,,,,,,Sebastian,001,2020_Dec_15_1432,piloto1,2020.2.5,59.92954682375182,
400,0.02,imagenes/Pandebono.png,0.8988574378129985,None,0,3,3,0,0,14,14,26,,,194.85907639998766,195.85914169999887,195.85914169999887,None,3.34375,1.0901343000005,195.85914169999887,None,,,,,,,,,,,,,Sebastian,001,2020_Dec_15_1432,piloto1,2020.2.5,59.92954682375182,
400,0.02,imagenes/Rollo de queso.png,0.9201641182756888,None,0,3,3,0,0,15,15,33,,,195.9922946999926,196.9926598999882,196.9926598999882,None,3.34375,1.208111400002963,196.9926598999882,None,,,,,,,,,,,,,Sebastian,001,2020_Dec_15_1432,piloto1,2020.2.5,59.92954682375182,
400,0.02,imagenes/Croissant.jpg,0.5824748589948932,None,0,3,3,0,0,16,16,5,,,197.2425530999957,198.24241130000155,198.24241130000155,None,3.34375,1.107556500006467,198.24241130000155,None,,,,,,,,,,,,,Sebastian,001,2020_Dec_15_1432,piloto1,2020.2.5,59.92954682375182,
400,0.02,imagenes/Uvas.jpg,0.4959291644143431,None,0,3,3,0,0,17,17,19,,,198.39250649999883,None,199.3756347999879,None,3.34375,1.102726299999631,199.3756347999879,None,,,,,,,,,,,,,Sebastian,001,2020_Dec_15_1432,piloto1,2020.2.5,59.92954682375182,
400,0.02,imagenes/Rosquitas (1).jpg,0.024090340010977873,None,0,3,3,0,0,18,18,17,,,199.52534800000137,None,200.52572459999647,None,3.34375,1.1932530000049155,200.52572459999647,None,,,,,,,,,,,,,Sebastian,001,2020_Dec_15_1432,piloto1,2020.2.5,59.92954682375182,
400,0.02,imagenes/Pizzetas.png,0.3295951589873042,None,0,3,3,0,0,19,19,32,,,200.7585155999899,201.7592358999973,201.74220539999078,None,3.3502604166666665,1.1661254999926314,201.74220539999078,None,,,,,,,,,,,,,Sebastian,001,2020_Dec_15_1432,piloto1,2020.2.5,59.92954682375182,
400,0.02,imagenes/Mango.jpeg,0.4341155418941499,None,0,3,3,0,0,20,20,10,,,201.9589081999933,202.95879269999568,202.95879269999568,None,3.2330729166666665,1.1941593999945326,202.95879269999568,None,,,,,,,,,,,,,Sebastian,001,2020_Dec_15_1432,piloto1,2020.2.5,59.92954682375182,
400,0.02,imagenes/Papas-pollo.jpg,0.08373485417902837,None,0,3,3,0,0,21,21,15,,,203.17574504999646,204.17540909998934,204.17540909998934,None,3.3046875,2.605885800003307,204.17540909998934,None,,,,,,,,,,,,,Sebastian,001,2020_Dec_15_1432,piloto1,2020.2.5,59.92954682375182,
400,0.02,imagenes/Chocoramo.jfif.jpg,0.7425528559884101,None,0,3,3,0,0,22,22,4,,,205.82496749998825,None,206.82519379998848,None,3.4088541666666665,1.0100965000019642,206.82519379998848,None,,,,,,,,,,,,,Sebastian,001,2020_Dec_15_1432,piloto1,2020.2.5,59.92954682375182,
400,0.02,imagenes/Manzana.jpg,0.4048420327008191,None,0,3,3,0,0,23,23,11,,,206.87520509999592,207.87524119998852,207.87524119998852,None,3.4088541666666665,1.2240763000008883,207.87524119998852,None,,,,,,,,,,,,,Sebastian,001,2020_Dec_15_1432,piloto1,2020.2.5,59.92954682375182,
400,0.02,imagenes/Galletas Tosh.jpg,0.9129693753280027,None,0,3,3,0,0,24,24,6,,,208.14172969999197,209.14190849999432,209.14190849999432,None,3.4088541666666665,1.0898026999930153,209.14190849999432,None,,,,,,,,,,,,,Sebastian,001,2020_Dec_15_1432,piloto1,2020.2.5,59.92954682375182,
400,0.02,imagenes/Muffin de banano.png,0.9610615059009696,None,0,3,3,0,0,25,25,25,,,209.30834129999565,210.30873999999312,210.30873999999312,None,3.4088541666666665,1.3762282999960007,210.30873999999312,None,,,,,,,,,,,,,Sebastian,001,2020_Dec_15_1432,piloto1,2020.2.5,59.92954682375182,
400,0.02,imagenes/Alpinito.jpg,0.7416150880621702,None,0,3,3,0,0,26,26,0,,,210.7416437499938,None,211.72751620000054,None,3.4088541666666665,1.0653977999900235,211.72751620000054,None,,,,,,,,,,,,,Sebastian,001,2020_Dec_15_1432,piloto1,2020.2.5,59.92954682375182,
400,0.02,imagenes/Banano.jpeg,0.2267656716538785,None,0,3,3,0,0,27,27,1,,,211.84157699999048,None,212.8249336000008,None,3.4088541666666665,1.2691439999907743,212.8249336000008,None,,,,,,,,,,,,,Sebastian,001,2020_Dec_15_1432,piloto1,2020.2.5,59.92954682375182,
400,0.02,imagenes/salchicha hojaldrada.jpg,0.7119773165481526,None,0,3,3,0,0,28,28,35,,,213.12480724999767,None,214.1119187000004,None,3.4088541666666665,1.1139541000011377,214.1119187000004,None,,,,,,,,,,,,,Sebastian,001,2020_Dec_15_1432,piloto1,2020.2.5,59.92954682375182,
400,0.02,imagenes/Canelazo.png,0.6730479360767814,None,0,3,3,0,0,29,29,22,,,214.29164825000188,215.29199269998935,215.29199269998935,None,3.4088541666666665,1.2250503999966895,215.29199269998935,None,,,,,,,,,,,,,Sebastian,001,2020_Dec_15_1432,piloto1,2020.2.5,59.92954682375182,
400,0.02,imagenes/Pepinillos.png,0.0038966441241518046,None,0,3,3,0,0,30,30,28,,,215.55823380000072,216.5583762999886,216.5583762999886,None,3.4088541666666665,1.040463199999067,216.5583762999886,None,,,,,,,,,,,,,Sebastian,001,2020_Dec_15_1432,piloto1,2020.2.5,59.92954682375182,
400,0.02,imagenes/Pescadito.png,0.7172825011486081,None,0,3,3,0,0,31,31,29,,,216.6415566999989,None,217.62486919999355,None,3.4088541666666665,1.3469673999934457,217.62486919999355,None,,,,,,,,,,,,,Sebastian,001,2020_Dec_15_1432,piloto1,2020.2.5,59.92954682375182,
400,0.02,imagenes/bon-bon-bun.jpg,0.7417452724056987,None,0,3,3,0,0,32,32,2,,,218.02438959999415,219.02470429999812,219.02470429999812,None,3.4088541666666665,1.2400878999906126,219.02470429999812,None,,,,,,,,,,,,,Sebastian,001,2020_Dec_15_1432,piloto1,2020.2.5,59.92954682375182,
400,0.02,imagenes/Pizza.png,0.21192443516553439,None,0,3,3,0,0,33,33,31,,,219.30772529999956,220.30802029999904,220.29176979999465,None,3.4088541666666665,1.3179594999965047,220.29176979999465,None,,,,,,,,,,,,,Sebastian,001,2020_Dec_15_1432,piloto1,2020.2.5,59.92954682375182,
400,0.02,imagenes/Rollos de canela.png,0.2610974409574519,None,0,3,3,0,0,34,34,34,,,220.65785419999736,None,221.64156139999977,None,3.4088541666666665,1.3008001999987755,221.64156139999977,None,,,,,,,,,,,,,Sebastian,001,2020_Dec_15_1432,piloto1,2020.2.5,59.92954682375182,
400,0.02,imagenes/Brownie.jpg,0.2838924074864093,None,0,3,3,0,0,35,35,3,,,222.00789534999203,223.00796719999926,223.00796719999926,None,3.4088541666666665,1.3711307999910787,223.00796719999926,None,,,,,,,,,,,,,Sebastian,001,2020_Dec_15_1432,piloto1,2020.2.5,59.92954682375182,
400,0.02,,,,0,3,3,0,,,,,,,,,,,,,,,,,,,,,,,,,,,Sebastian,001,2020_Dec_15_1432,piloto1,2020.2.5,59.92954682375182,
,,,,,,,,,,,,,,,,,,,,,,,223.40792089999013,None,224.40809879999142,None,225.46655369999644,None,226.5063344999944,None,227.5311984,None,229.59647889999906,None,,,,,,,
