Hertz,volumen,Imagenes,Random,Correcto,trials.thisRepN,trials.thisTrialN,trials.thisN,trials.thisIndex,trials_2.thisRepN,trials_2.thisTrialN,trials_2.thisN,trials_2.thisIndex,sound_3.started,sound_3.stopped,Sonido.started,Sonido.stopped,image_2.started,image_2.stopped,slider_2.response,slider_2.rt,slider_2.started,slider_2.stopped,participant,session,date,expName,psychopyVersion,frameRate,
1000,0.02,imagenes/Galletas Tosh.jpg,0.9129693753280027,None,0,0,0,2,0,0,0,6,14.13159256000945,None,24.750723339999965,None,25.808791999996174,None,3.51953125,2.253444500005571,25.808791999996174,None,Sebastian,001,2020_Dec_15_1334,piloto1,2020.2.5,59.84752048802171,
1000,0.02,imagenes/Pepinillos.png,0.0038966441241518046,None,0,0,0,2,0,1,1,28,,,27.09947671999398,28.099278299996513,28.099278299996513,None,4.229166666666667,1.4385852000123123,28.099278299996513,None,Sebastian,001,2020_Dec_15_1334,piloto1,2020.2.5,59.84752048802171,
1000,0.02,imagenes/Yogurt-alpina.jpg,0.5445152936222175,None,0,0,0,2,0,2,2,18,,,28.598692859998845,None,29.6108530999918,None,3.94921875,1.6109525999927428,29.6108530999918,None,Sebastian,001,2020_Dec_15_1334,piloto1,2020.2.5,59.84752048802171,
1000,0.02,imagenes/bon-bon-bun.jpg,0.7417452724056987,None,0,0,0,2,0,3,3,2,,,30.351512960001127,31.35022079999908,31.33440530000371,None,2.8880208333333335,1.3151396000030218,31.33440530000371,None,Sebastian,001,2020_Dec_15_1334,piloto1,2020.2.5,59.84752048802171,
1000,0.02,imagenes/Papas-pollo.jpg,0.08373485417902837,None,0,0,0,2,0,4,4,15,,,31.698332540004046,32.69854840000335,32.68246050000016,None,2.1458333333333335,2.029748099987046,32.68246050000016,None,Sebastian,001,2020_Dec_15_1334,piloto1,2020.2.5,59.84752048802171,
1000,0.02,imagenes/Muffin de banano.png,0.9610615059009696,None,0,0,0,2,0,5,5,25,,,33.79871978000447,34.79814759999863,34.79814759999863,None,3.3958333333333335,1.492867799999658,34.79814759999863,None,Sebastian,001,2020_Dec_15_1334,piloto1,2020.2.5,59.84752048802171,
1000,0.02,imagenes/Nutella (1).jpg,0.8826531883338111,None,0,0,0,2,0,6,6,12,,,35.35030256000318,None,36.33210849999159,None,3.4479166666666665,1.4829108999983873,36.33210849999159,None,Sebastian,001,2020_Dec_15_1334,piloto1,2020.2.5,59.84752048802171,
1000,0.02,imagenes/Brownie.jpg,0.2838924074864093,None,0,0,0,2,0,7,7,3,,,36.917008299999,None,37.91326580000168,None,3.91015625,1.4026683999982197,37.91326580000168,None,Sebastian,001,2020_Dec_15_1334,piloto1,2020.2.5,59.84752048802171,
1000,0.02,imagenes/Alpinito.jpg,0.7416150880621702,None,0,0,0,2,0,8,8,0,,,38.43019301999302,None,39.41338369999721,None,4.854166666666666,1.4189781999884872,39.41338369999721,None,Sebastian,001,2020_Dec_15_1334,piloto1,2020.2.5,59.84752048802171,
1000,0.02,imagenes/salchicha hojaldrada.jpg,0.7119773165481526,None,0,0,0,2,0,9,9,35,,,39.88011753999744,40.880301600001985,40.880301600001985,None,4.196614583333333,1.7599200999975437,40.880301600001985,None,Sebastian,001,2020_Dec_15_1334,piloto1,2020.2.5,59.84752048802171,
1000,0.02,imagenes/Rollo de queso.png,0.9201641182756888,None,0,0,0,2,0,10,10,33,,,41.729980900003284,42.72983480000403,42.72983480000403,None,3.565104166666667,1.6067474000010407,42.72983480000403,None,Sebastian,001,2020_Dec_15_1334,piloto1,2020.2.5,59.84752048802171,
1000,0.02,imagenes/Kiwi.jpg,0.3929145850942286,None,0,0,0,2,0,11,11,8,,,43.37997943999362,44.37993209999695,44.37993209999695,None,2.9075520833333335,1.4949091000016779,44.37993209999695,None,Sebastian,001,2020_Dec_15_1334,piloto1,2020.2.5,59.84752048802171,
1000,0.02,imagenes/Galletas-festival.jpg,0.11306074364032936,None,0,0,0,2,0,12,12,7,,,44.946483979999904,None,45.92970320000313,None,3.2916666666666665,1.5332932000019355,45.92970320000313,None,Sebastian,001,2020_Dec_15_1334,piloto1,2020.2.5,59.84752048802171,
1000,0.02,imagenes/Croissant.jpg,0.5824748589948932,None,0,0,0,2,0,13,13,5,,,46.56310279999889,47.56310189999931,47.54646139999386,None,3.727864583333333,1.7635509999963688,47.54646139999386,None,Sebastian,001,2020_Dec_15_1334,piloto1,2020.2.5,59.84752048802171,
1000,0.02,imagenes/Pizza.png,0.21192443516553439,None,0,0,0,2,0,14,14,31,,,48.37965825999999,None,49.379830899997614,None,4.235677083333333,1.559013899997808,49.379830899997614,None,Sebastian,001,2020_Dec_15_1334,piloto1,2020.2.5,59.84752048802171,
1000,0.02,imagenes/Banano.jpeg,0.2267656716538785,None,0,0,0,2,0,15,15,1,,,49.99631945999426,50.99626349999744,50.99626349999744,None,3.506510416666667,1.6609372999955667,50.99626349999744,None,Sebastian,001,2020_Dec_15_1334,piloto1,2020.2.5,59.84752048802171,
1000,0.02,imagenes/Pescadito.png,0.7172825011486081,None,0,0,0,2,0,16,16,29,,,51.729607979994036,52.72957320000569,52.712856800004374,None,3.3177083333333335,1.6489589999982854,52.712856800004374,None,Sebastian,001,2020_Dec_15_1334,piloto1,2020.2.5,59.84752048802171,
1000,0.02,imagenes/Leche-de-almendras.jpg,0.3886559457994673,None,0,0,0,2,0,17,17,9,,,53.5294967800015,None,54.512795400005416,None,3.3177083333333335,1.7692856999929063,54.512795400005416,None,Sebastian,001,2020_Dec_15_1334,piloto1,2020.2.5,59.84752048802171,
1000,0.02,imagenes/Mango.jpeg,0.4341155418941499,None,0,0,0,2,0,18,18,10,,,55.34580335999926,None,56.32925900000555,None,3.4934895833333335,1.981739099996048,56.32925900000555,None,Sebastian,001,2020_Dec_15_1334,piloto1,2020.2.5,59.84752048802171,
1000,0.02,imagenes/Chontaduro.png,0.8693553300418813,None,0,0,0,2,0,19,19,23,,,57.3792380600018,58.37930000000051,58.36246889999893,None,3.6171875,1.6643459999904735,58.36246889999893,None,Sebastian,001,2020_Dec_15_1334,piloto1,2020.2.5,59.84752048802171,
1000,0.02,imagenes/Pandebono.png,0.8988574378129985,None,0,0,0,2,0,20,20,26,,,59.112711579998724,60.112238000001526,60.112238000001526,None,3.662760416666667,1.677561299991794,60.112238000001526,None,Sebastian,001,2020_Dec_15_1334,piloto1,2020.2.5,59.84752048802171,
1000,0.02,imagenes/Chocoramo.jfif.jpg,0.7425528559884101,None,0,0,0,2,0,21,21,4,,,60.87929869999789,61.878973400001996,61.86253569999826,None,3.877604166666667,1.9315051999874413,61.86253569999826,None,Sebastian,001,2020_Dec_15_1334,piloto1,2020.2.5,59.84752048802171,
1000,0.02,imagenes/Coliflor.jpg,0.3640740491088985,None,0,0,0,2,0,22,22,24,,,62.86249186000641,63.862791599996854,63.862791599996854,None,3.708333333333333,1.6947325999935856,63.862791599996854,None,Sebastian,001,2020_Dec_15_1334,piloto1,2020.2.5,59.84752048802171,
1000,0.02,imagenes/Papas picantes.jpg,0.524978898672612,None,0,0,0,2,0,23,23,27,,,64.59581333999523,None,65.57887369999662,None,3.2981770833333335,1.6506478999945102,65.57887369999662,None,Sebastian,001,2020_Dec_15_1334,piloto1,2020.2.5,59.84752048802171,
1000,0.02,imagenes/Popetas.jpg,0.9621625733302204,None,0,0,0,2,0,24,24,16,,,66.37896036000457,67.37895119999303,67.37895119999303,None,3.2981770833333335,1.756041600005119,67.37895119999303,None,Sebastian,001,2020_Dec_15_1334,piloto1,2020.2.5,59.84752048802171,
1000,0.02,imagenes/Papas-limon.jpg,0.5280798509093595,None,0,0,0,2,0,25,25,14,,,68.19539135999658,None,69.17882489999465,None,3.2981770833333335,1.667259699999704,69.17882489999465,None,Sebastian,001,2020_Dec_15_1334,piloto1,2020.2.5,59.84752048802171,
1000,0.02,imagenes/Almojabanas.png,0.6725051200713246,None,0,0,0,2,0,26,26,20,,,69.9456652000008,None,70.92960370000219,None,3.12890625,1.579235700002755,70.92960370000219,None,Sebastian,001,2020_Dec_15_1334,piloto1,2020.2.5,59.84752048802171,
1000,0.02,imagenes/Canelazo.png,0.6730479360767814,None,0,0,0,2,0,27,27,22,,,71.64536044000562,72.64525790000334,72.64525790000334,None,3.63671875,1.6607733000128064,72.64525790000334,None,Sebastian,001,2020_Dec_15_1334,piloto1,2020.2.5,59.84752048802171,
1000,0.02,imagenes/Papas-naturales.jpg,0.37590629905521566,None,0,0,0,2,0,28,28,13,,,73.36178416000185,None,74.34487020000233,None,4.053385416666667,1.4864919999963604,74.34487020000233,None,Sebastian,001,2020_Dec_15_1334,piloto1,2020.2.5,59.84752048802171,
1000,0.02,imagenes/Rollos de canela.png,0.2610974409574519,None,0,0,0,2,0,29,29,34,,,74.89520126000134,75.89493310000398,75.89493310000398,None,4.053385416666667,1.7230515999981435,75.89493310000398,None,Sebastian,001,2020_Dec_15_1334,piloto1,2020.2.5,59.84752048802171,
1000,0.02,imagenes/Pizzetas.png,0.3295951589873042,None,0,0,0,2,0,30,30,32,,,76.69502098000667,None,77.67923090000113,None,4.37890625,1.568752899998799,77.67923090000113,None,Sebastian,001,2020_Dec_15_1334,piloto1,2020.2.5,59.84752048802171,
1000,0.02,imagenes/Manzana.jpg,0.4048420327008191,None,0,0,0,2,0,31,31,11,,,78.36169621999434,None,79.34523219999392,None,4.37890625,2.680114599992521,79.34523219999392,None,Sebastian,001,2020_Dec_15_1334,piloto1,2020.2.5,59.84752048802171,
1000,0.02,imagenes/pistachos.jpg,0.7450869742741464,None,0,0,0,2,0,32,32,30,,,81.0611084200049,82.0611884999962,82.04453129999456,None,3.59765625,1.5961745999957202,82.04453129999456,None,Sebastian,001,2020_Dec_15_1334,piloto1,2020.2.5,59.84752048802171,
1000,0.02,imagenes/Rosquitas (1).jpg,0.024090340010977873,None,0,0,0,2,0,33,33,17,,,82.7113051599983,83.71135119999235,83.71135119999235,None,3.1875,1.657663700010744,83.71135119999235,None,Sebastian,001,2020_Dec_15_1334,piloto1,2020.2.5,59.84752048802171,
1000,0.02,imagenes/Brocoli.jpg,0.24293074945529525,None,0,0,0,2,0,34,34,21,,,84.42794256000634,None,85.41102679999312,None,3.1875,1.602885200001765,85.41102679999312,None,Sebastian,001,2020_Dec_15_1334,piloto1,2020.2.5,59.84752048802171,
1000,0.02,imagenes/Uvas.jpg,0.4959291644143431,None,0,0,0,2,0,35,35,19,,,86.09447147999309,None,87.06145500000275,None,2.829427083333333,1.5881818999914685,87.06145500000275,None,Sebastian,001,2020_Dec_15_1334,piloto1,2020.2.5,59.84752048802171,
1000,0.02,,,,0,0,0,2,,,,,,,,,,,,,,,Sebastian,001,2020_Dec_15_1334,piloto1,2020.2.5,59.84752048802171,
1000,0.0,imagenes/Croissant.jpg,0.5824748589948932,None,0,1,1,3,0,0,0,5,,,87.77784102000297,88.77782610000577,88.77782610000577,None,2.484375,1.6886393999884604,88.77782610000577,None,Sebastian,001,2020_Dec_15_1334,piloto1,2020.2.5,59.84752048802171,
1000,0.0,imagenes/Pandebono.png,0.8988574378129985,None,0,1,1,3,0,1,1,26,,,89.5443800799927,None,90.54449450000538,None,3.2265625,1.8445120999967912,90.54449450000538,None,Sebastian,001,2020_Dec_15_1334,piloto1,2020.2.5,59.84752048802171,
1000,0.0,imagenes/Brownie.jpg,0.2838924074864093,None,0,1,1,3,0,2,2,3,,,91.49429802000523,None,92.47904530000233,None,3.421875,2.100057300005574,92.47904530000233,None,Sebastian,001,2020_Dec_15_1334,piloto1,2020.2.5,59.84752048802171,
1000,0.0,imagenes/Nutella (1).jpg,0.8826531883338111,None,0,1,1,3,0,3,3,12,,,93.62762634000393,None,94.62746109999716,None,3.421875,1.7389163000043482,94.62746109999716,None,Sebastian,001,2020_Dec_15_1334,piloto1,2020.2.5,59.84752048802171,
1000,0.0,imagenes/Pescadito.png,0.7172825011486081,None,0,1,1,3,0,4,4,29,,,95.4441753799998,None,96.42726009999751,None,None,None,96.42726009999751,None,Sebastian,001,2020_Dec_15_1334,piloto1,2020.2.5,59.84752048802171,
1000,0.0,imagenes/Pizzetas.png,0.3295951589873042,None,0,1,1,3,0,5,5,32,,,98.46067755999248,None,99.44399869999324,98.4507459000015,3.55859375,1.686721200007014,99.44399869999324,98.4507459000015,Sebastian,001,2020_Dec_15_1334,piloto1,2020.2.5,59.84752048802171,
1000,0.0,imagenes/Rosquitas (1).jpg,0.024090340010977873,None,0,1,1,3,0,6,6,17,,,100.22742859999562,101.22699130000547,101.22699130000547,None,3.1158854166666665,1.6533834000001661,101.22699130000547,None,Sebastian,001,2020_Dec_15_1334,piloto1,2020.2.5,59.84752048802171,
1000,0.0,imagenes/Canelazo.png,0.6730479360767814,None,0,1,1,3,0,7,7,22,,,102.01033223999985,None,102.99355719999585,None,3.1158854166666665,2.554355600004783,102.99355719999585,None,Sebastian,001,2020_Dec_15_1334,piloto1,2020.2.5,59.84752048802171,
1000,0.0,imagenes/Brocoli.jpg,0.24293074945529525,None,0,1,1,3,0,8,8,21,,,104.59446993999592,105.59373490000144,105.57838110000012,None,2.848958333333333,1.414183500004583,105.57838110000012,None,Sebastian,001,2020_Dec_15_1334,piloto1,2020.2.5,59.84752048802171,
1000,0.0,imagenes/Kiwi.jpg,0.3929145850942286,None,0,1,1,3,0,9,9,8,,,106.04366104000366,107.04401349999534,107.02762350000557,None,3.4153645833333335,1.5861676999920746,107.02762350000557,None,Sebastian,001,2020_Dec_15_1334,piloto1,2020.2.5,59.84752048802171,
1000,0.0,imagenes/Galletas Tosh.jpg,0.9129693753280027,None,0,1,1,3,0,10,10,6,,,107.6935928800027,108.69389110000338,108.69389110000338,None,3.75390625,1.5042372000025352,108.69389110000338,None,Sebastian,001,2020_Dec_15_1334,piloto1,2020.2.5,59.84752048802171,
1000,0.0,imagenes/Chocoramo.jfif.jpg,0.7425528559884101,None,0,1,1,3,0,11,11,4,,,109.24322863999697,110.2426051999937,110.2426051999937,None,3.2721354166666665,2.024078800008283,110.2426051999937,None,Sebastian,001,2020_Dec_15_1334,piloto1,2020.2.5,59.84752048802171,
1000,0.0,imagenes/Rollo de queso.png,0.9201641182756888,None,0,1,1,3,0,12,12,33,,,111.30937153999986,112.30938750000496,112.30938750000496,None,3.2721354166666665,1.4252395000075921,112.30938750000496,None,Sebastian,001,2020_Dec_15_1334,piloto1,2020.2.5,59.84752048802171,
1000,0.0,imagenes/Mango.jpeg,0.4341155418941499,None,0,1,1,3,0,13,13,10,,,112.77592834000535,None,113.759321000005,None,3.75390625,1.5467196999961743,113.759321000005,None,Sebastian,001,2020_Dec_15_1334,piloto1,2020.2.5,59.84752048802171,
1000,0.0,imagenes/Pizza.png,0.21192443516553439,None,0,1,1,3,0,14,14,31,,,114.34273302000511,115.34268200000224,115.34268200000224,None,3.4869791666666665,1.6260244000004604,115.34268200000224,None,Sebastian,001,2020_Dec_15_1334,piloto1,2020.2.5,59.84752048802171,
1000,0.0,imagenes/Banano.jpeg,0.2267656716538785,None,0,1,1,3,0,15,15,1,,,115.99239932000492,116.99269630000344,116.99269630000344,None,3.4869791666666665,1.6073625999997603,116.99269630000344,None,Sebastian,001,2020_Dec_15_1334,piloto1,2020.2.5,59.84752048802171,
1000,0.0,imagenes/Popetas.jpg,0.9621625733302204,None,0,1,1,3,0,16,16,16,,,117.64261033999793,None,118.6428023000044,None,3.766927083333333,1.4099562000046717,118.6428023000044,None,Sebastian,001,2020_Dec_15_1334,piloto1,2020.2.5,59.84752048802171,
1000,0.0,imagenes/Yogurt-alpina.jpg,0.5445152936222175,None,0,1,1,3,0,17,17,18,,,119.09256603999239,120.09241779999866,120.07570169999963,None,3.981770833333333,1.604039500001818,120.07570169999963,None,Sebastian,001,2020_Dec_15_1334,piloto1,2020.2.5,59.84752048802171,
1000,0.0,imagenes/Coliflor.jpg,0.3640740491088985,None,0,1,1,3,0,18,18,24,,,120.70952842000261,121.70907830000215,121.70907830000215,None,4.424479166666667,2.0864083000051323,121.70907830000215,None,Sebastian,001,2020_Dec_15_1334,piloto1,2020.2.5,59.84752048802171,
1000,0.0,imagenes/Papas-naturales.jpg,0.37590629905521566,None,0,1,1,3,0,19,19,13,,,122.82561971999385,None,123.82578460000514,None,3.526041666666667,1.5535231999965617,123.82578460000514,None,Sebastian,001,2020_Dec_15_1334,piloto1,2020.2.5,59.84752048802171,
1000,0.0,imagenes/Rollos de canela.png,0.2610974409574519,None,0,1,1,3,0,20,20,34,,,124.42549433999812,None,125.40896699999576,None,None,None,125.40896699999576,None,Sebastian,001,2020_Dec_15_1334,piloto1,2020.2.5,59.84752048802171,
1000,0.0,imagenes/Alpinito.jpg,0.7416150880621702,None,0,1,1,3,0,21,21,0,,,127.47581349999382,128.48676840000553,128.48676840000553,127.47213729999203,3.3111979166666665,1.8104976999893552,128.48676840000553,127.47213729999203,Sebastian,001,2020_Dec_15_1334,piloto1,2020.2.5,59.84752048802171,
1000,0.0,imagenes/pistachos.jpg,0.7450869742741464,None,0,1,1,3,0,22,22,30,,,129.30854681999918,130.30891639999754,130.30891639999754,None,3.65625,1.8598850999987917,130.30891639999754,None,Sebastian,001,2020_Dec_15_1334,piloto1,2020.2.5,59.84752048802171,
1000,0.0,imagenes/Chontaduro.png,0.8693553300418813,None,0,1,1,3,0,23,23,23,,,131.18112972000236,None,132.17916250000417,None,3.805989583333333,1.7848588000051677,132.17916250000417,None,Sebastian,001,2020_Dec_15_1334,piloto1,2020.2.5,59.84752048802171,
1000,0.0,imagenes/Almojabanas.png,0.6725051200713246,None,0,1,1,3,0,24,24,20,,,133.0756004199997,None,134.0587816000043,None,4.190104166666667,1.571026300007361,134.0587816000043,None,Sebastian,001,2020_Dec_15_1334,piloto1,2020.2.5,59.84752048802171,
1000,0.0,imagenes/salchicha hojaldrada.jpg,0.7119773165481526,None,0,1,1,3,0,25,25,35,,,134.65893662000454,135.65876389999175,135.65876389999175,None,3.506510416666667,2.158246999999392,135.65876389999175,None,Sebastian,001,2020_Dec_15_1334,piloto1,2020.2.5,59.84752048802171,
1000,0.0,imagenes/Uvas.jpg,0.4959291644143431,None,0,1,1,3,0,26,26,19,,,136.87556116000198,None,137.8588374999963,None,3.1223958333333335,1.8290431999921566,137.8588374999963,None,Sebastian,001,2020_Dec_15_1334,piloto1,2020.2.5,59.84752048802171,
1000,0.0,imagenes/Papas picantes.jpg,0.524978898672612,None,0,1,1,3,0,27,27,27,,,138.72534211999883,139.72541090000595,139.72541090000595,None,3.44140625,1.3458140000002459,139.72541090000595,None,Sebastian,001,2020_Dec_15_1334,piloto1,2020.2.5,59.84752048802171,
1000,0.0,imagenes/Papas-limon.jpg,0.5280798509093595,None,0,1,1,3,0,28,28,14,,,140.10874583999686,141.10862199999974,141.10862199999974,None,3.649739583333333,1.7742342999990797,141.10862199999974,None,Sebastian,001,2020_Dec_15_1334,piloto1,2020.2.5,59.84752048802171,
1000,0.0,imagenes/Leche-de-almendras.jpg,0.3886559457994673,None,0,1,1,3,0,29,29,9,,,142.00848464000302,None,142.99177520000376,None,3.845052083333333,2.086244500009343,142.99177520000376,None,Sebastian,001,2020_Dec_15_1334,piloto1,2020.2.5,59.84752048802171,
1000,0.0,imagenes/bon-bon-bun.jpg,0.7417452724056987,None,0,1,1,3,0,30,30,2,,,144.17517739999312,145.17507549999573,145.17507549999573,None,4.190104166666667,1.7398227999947267,145.17507549999573,None,Sebastian,001,2020_Dec_15_1334,piloto1,2020.2.5,59.84752048802171,
1000,0.0,imagenes/Galletas-festival.jpg,0.11306074364032936,None,0,1,1,3,0,31,31,7,,,146.02530512000376,None,147.02509199999622,None,3.4283854166666665,1.6955930000112858,147.02509199999622,None,Sebastian,001,2020_Dec_15_1334,piloto1,2020.2.5,59.84752048802171,
1000,0.0,imagenes/Muffin de banano.png,0.9610615059009696,None,0,1,1,3,0,32,32,25,,,147.8087325000015,148.80821800000558,148.80821800000558,None,3.4283854166666665,2.0221782000007806,148.80821800000558,None,Sebastian,001,2020_Dec_15_1334,piloto1,2020.2.5,59.84752048802171,
1000,0.0,imagenes/Papas-pollo.jpg,0.08373485417902837,None,0,1,1,3,0,33,33,15,,,149.85799421999982,150.85812520000036,150.85812520000036,None,3.1549479166666665,1.6745699000020977,150.85812520000036,None,Sebastian,001,2020_Dec_15_1334,piloto1,2020.2.5,59.84752048802171,
1000,0.0,imagenes/Pepinillos.png,0.0038966441241518046,None,0,1,1,3,0,34,34,28,,,151.6082026799937,None,152.59155640000245,None,3.3958333333333335,2.0006186999962665,152.59155640000245,None,Sebastian,001,2020_Dec_15_1334,piloto1,2020.2.5,59.84752048802171,
1000,0.0,imagenes/Manzana.jpg,0.4048420327008191,None,0,1,1,3,0,35,35,11,,,153.69132819999504,None,154.6747825999919,None,3.532552083333333,1.5340327000012621,154.6747825999919,None,Sebastian,001,2020_Dec_15_1334,piloto1,2020.2.5,59.84752048802171,
1000,0.0,,,,0,1,1,3,,,,,,,,,,,,,,,Sebastian,001,2020_Dec_15_1334,piloto1,2020.2.5,59.84752048802171,
400,0.02,imagenes/Coliflor.jpg,0.3640740491088985,None,0,2,2,0,0,0,0,24,,,155.32495181999403,156.32466549999663,156.32466549999663,None,3.67578125,2.104803299997002,156.32466549999663,None,Sebastian,001,2020_Dec_15_1334,piloto1,2020.2.5,59.84752048802171,
400,0.02,imagenes/Almojabanas.png,0.6725051200713246,None,0,2,2,0,0,1,1,20,,,157.5079605799925,158.50783319999755,158.50783319999755,None,3.2916666666666665,1.6726039000059245,158.50783319999755,None,Sebastian,001,2020_Dec_15_1334,piloto1,2020.2.5,59.84752048802171,
400,0.02,imagenes/Pizza.png,0.21192443516553439,None,0,2,2,0,0,2,2,31,,,159.241117459994,None,160.2245438999962,None,3.0052083333333335,1.716201599992928,160.2245438999962,None,Sebastian,001,2020_Dec_15_1334,piloto1,2020.2.5,59.84752048802171,
400,0.02,imagenes/Uvas.jpg,0.4959291644143431,None,0,2,2,0,0,3,3,19,,,160.99099203999214,None,161.97484629999963,None,2.8880208333333335,1.8208146000106353,161.97484629999963,None,Sebastian,001,2020_Dec_15_1334,piloto1,2020.2.5,59.84752048802171,
400,0.02,imagenes/Chocoramo.jfif.jpg,0.7425528559884101,None,0,2,2,0,0,4,4,4,,,162.92433054000577,None,163.89098179999564,None,2.71875,1.602224699992803,163.89098179999564,None,Sebastian,001,2020_Dec_15_1334,piloto1,2020.2.5,59.84752048802171,
400,0.02,imagenes/Mango.jpeg,0.4341155418941499,None,0,2,2,0,0,5,5,10,,,164.55720143999207,165.5574101999955,165.5408158999926,None,3.2330729166666665,1.6647075999935623,165.5408158999926,None,Sebastian,001,2020_Dec_15_1334,piloto1,2020.2.5,59.84752048802171,
400,0.02,imagenes/bon-bon-bun.jpg,0.7417452724056987,None,0,2,2,0,0,6,6,2,,,166.29108807999873,167.2905926999956,167.2738001999969,None,3.5,1.7795620999968378,167.2738001999969,None,Sebastian,001,2020_Dec_15_1334,piloto1,2020.2.5,59.84752048802171,
400,0.02,imagenes/Canelazo.png,0.6730479360767814,None,0,2,2,0,0,7,7,22,,,168.2073431600031,None,169.17445789999329,None,3.532552083333333,2.021429200001876,169.17445789999329,None,Sebastian,001,2020_Dec_15_1334,piloto1,2020.2.5,59.84752048802171,
400,0.02,imagenes/Chontaduro.png,0.8693553300418813,None,0,2,2,0,0,8,8,23,,,170.27418606000285,None,171.257214199999,None,4.541666666666667,2.284389699998428,171.257214199999,None,Sebastian,001,2020_Dec_15_1334,piloto1,2020.2.5,59.84752048802171,
400,0.02,imagenes/Yogurt-alpina.jpg,0.5445152936222175,None,0,2,2,0,0,9,9,18,,,172.6071082600058,173.6068333000003,173.6068333000003,None,3.877604166666667,1.828521899995394,173.6068333000003,None,Sebastian,001,2020_Dec_15_1334,piloto1,2020.2.5,59.84752048802171,
400,0.02,imagenes/Nutella (1).jpg,0.8826531883338111,None,0,2,2,0,0,10,10,12,,,174.47378834000557,None,175.47352440000395,None,3.877604166666667,1.9386834999895655,175.47352440000395,None,Sebastian,001,2020_Dec_15_1334,piloto1,2020.2.5,59.84752048802171,
400,0.02,imagenes/Croissant.jpg,0.5824748589948932,None,0,2,2,0,0,11,11,5,,,176.49047158000175,None,177.47370790000423,None,4.352864583333333,1.6705809999984922,177.47370790000423,None,Sebastian,001,2020_Dec_15_1334,piloto1,2020.2.5,59.84752048802171,
400,0.02,imagenes/Muffin de banano.png,0.9610615059009696,None,0,2,2,0,0,12,12,25,,,178.24043129999336,None,179.2234802000021,None,None,None,179.2234802000021,None,Sebastian,001,2020_Dec_15_1334,piloto1,2020.2.5,59.84752048802171,
400,0.02,imagenes/Papas-naturales.jpg,0.37590629905521566,None,0,2,2,0,0,13,13,13,,,181.2568001599968,None,182.24003919999814,181.24509159999434,3.0833333333333335,2.3046629000018584,182.24003919999814,181.24509159999434,Sebastian,001,2020_Dec_15_1334,piloto1,2020.2.5,59.84752048802171,
400,0.02,imagenes/Papas picantes.jpg,0.524978898672612,None,0,2,2,0,0,14,14,27,,,183.57361751999852,184.57345569999598,184.57345569999598,None,2.875,1.7886760999972466,184.57345569999598,None,Sebastian,001,2020_Dec_15_1334,piloto1,2020.2.5,59.84752048802171,
400,0.02,imagenes/Rosquitas (1).jpg,0.024090340010977873,None,0,2,2,0,0,15,15,17,,,185.44003387999837,186.43993890000274,186.42311289999634,None,3.1223958333333335,1.615100099996198,186.42311289999634,None,Sebastian,001,2020_Dec_15_1334,piloto1,2020.2.5,59.84752048802171,
400,0.02,imagenes/pistachos.jpg,0.7450869742741464,None,0,2,2,0,0,16,16,30,,,187.07311902000075,188.07327569999325,188.07327569999325,None,3.36328125,2.325013099994976,188.07327569999325,None,Sebastian,001,2020_Dec_15_1334,piloto1,2020.2.5,59.84752048802171,
400,0.02,imagenes/Leche-de-almendras.jpg,0.3886559457994673,None,0,2,2,0,0,17,17,9,,,189.57310579999466,None,190.55809249999584,None,3.1419270833333335,1.913097500000731,190.55809249999584,None,Sebastian,001,2020_Dec_15_1334,piloto1,2020.2.5,59.84752048802171,
400,0.02,imagenes/Papas-limon.jpg,0.5280798509093595,None,0,2,2,0,0,18,18,14,,,191.5229783399962,192.52313519999734,192.52313519999734,None,None,None,192.52313519999734,None,Sebastian,001,2020_Dec_15_1334,piloto1,2020.2.5,59.84752048802171,
400,0.02,imagenes/salchicha hojaldrada.jpg,0.7119773165481526,None,0,2,2,0,0,19,19,35,,,194.52281372000144,195.52267190000566,195.52267190000566,194.52433289999317,3.44140625,1.7752064999949653,195.52267190000566,194.52433289999317,Sebastian,001,2020_Dec_15_1334,piloto1,2020.2.5,59.84752048802171,
400,0.02,imagenes/Galletas Tosh.jpg,0.9129693753280027,None,0,2,2,0,0,20,20,6,,,196.37256887999828,197.372532399997,197.35594819999824,None,3.8515625,1.6659568000031868,197.35594819999824,None,Sebastian,001,2020_Dec_15_1334,piloto1,2020.2.5,59.84752048802171,
400,0.02,imagenes/Brocoli.jpg,0.24293074945529525,None,0,2,2,0,0,21,21,21,,,198.07263104000305,None,199.05716460000258,None,3.59765625,1.4156139000115218,199.05716460000258,None,Sebastian,001,2020_Dec_15_1334,piloto1,2020.2.5,59.84752048802171,
400,0.02,imagenes/Alpinito.jpg,0.7416150880621702,None,0,2,2,0,0,22,22,0,,,199.57245420000254,None,200.55573880000156,None,3.75390625,1.9149538000056054,200.55573880000156,None,Sebastian,001,2020_Dec_15_1334,piloto1,2020.2.5,59.84752048802171,
400,0.02,imagenes/Rollo de queso.png,0.9201641182756888,None,0,2,2,0,0,23,23,33,,,201.57232889999432,202.5726796999952,202.55574219999835,None,3.981770833333333,1.932419899996603,202.55574219999835,None,Sebastian,001,2020_Dec_15_1334,piloto1,2020.2.5,59.84752048802171,
400,0.02,imagenes/Galletas-festival.jpg,0.11306074364032936,None,0,2,2,0,0,24,24,7,,,203.57259227999893,None,204.5557517999987,None,4.248697916666667,1.9343883000110509,204.5557517999987,None,Sebastian,001,2020_Dec_15_1334,piloto1,2020.2.5,59.84752048802171,
400,0.02,imagenes/Brownie.jpg,0.2838924074864093,None,0,2,2,0,0,25,25,3,,,205.58902320000198,206.58886899999925,206.58886899999925,None,None,None,206.58886899999925,None,Sebastian,001,2020_Dec_15_1334,piloto1,2020.2.5,59.84752048802171,
400,0.02,imagenes/Kiwi.jpg,0.3929145850942286,None,0,2,2,0,0,26,26,8,,,208.58862441999227,209.58870999999635,209.58870999999635,208.58850919999531,None,None,209.58870999999635,208.58850919999531,Sebastian,001,2020_Dec_15_1334,piloto1,2020.2.5,59.84752048802171,
400,0.02,imagenes/Pepinillos.png,0.0038966441241518046,None,0,2,2,0,0,27,27,28,,,211.63883708000648,None,212.62189500000386,211.63182729999244,3.669270833333333,2.1177580999938073,212.62189500000386,211.63182729999244,Sebastian,001,2020_Dec_15_1334,piloto1,2020.2.5,59.84752048802171,
400,0.02,imagenes/Pandebono.png,0.8988574378129985,None,0,2,2,0,0,28,28,26,,,213.80523855999783,214.80501470000308,214.80501470000308,None,3.897135416666667,1.656068199998117,214.80501470000308,None,Sebastian,001,2020_Dec_15_1334,piloto1,2020.2.5,59.84752048802171,
400,0.02,imagenes/Manzana.jpg,0.4048420327008191,None,0,2,2,0,0,29,29,11,,,215.5550757999954,None,216.53839829999197,None,4.138020833333333,1.870054600003641,216.53839829999197,None,Sebastian,001,2020_Dec_15_1334,piloto1,2020.2.5,59.84752048802171,
400,0.02,imagenes/Pizzetas.png,0.3295951589873042,None,0,2,2,0,0,30,30,32,,,217.50514079999266,None,218.50505300000077,None,3.981770833333333,1.777899200009415,218.50505300000077,None,Sebastian,001,2020_Dec_15_1334,piloto1,2020.2.5,59.84752048802171,
400,0.02,imagenes/Popetas.jpg,0.9621625733302204,None,0,2,2,0,0,31,31,16,,,219.42152875999747,220.42155820000335,220.40495919999375,None,3.819010416666667,2.0291958000016166,220.40495919999375,None,Sebastian,001,2020_Dec_15_1334,piloto1,2020.2.5,59.84752048802171,
400,0.02,imagenes/Banano.jpeg,0.2267656716538785,None,0,2,2,0,0,32,32,1,,,221.50524166000397,None,222.5050590000028,None,3.649739583333333,1.4454805999994278,222.5050590000028,None,Sebastian,001,2020_Dec_15_1334,piloto1,2020.2.5,59.84752048802171,
400,0.02,imagenes/Rollos de canela.png,0.2610974409574519,None,0,2,2,0,0,33,33,34,,,223.0048428599941,None,224.00497569999425,None,3.2395833333333335,1.8114796000008937,224.00497569999425,None,Sebastian,001,2020_Dec_15_1334,piloto1,2020.2.5,59.84752048802171,
400,0.02,imagenes/Papas-pollo.jpg,0.08373485417902837,None,0,2,2,0,0,34,34,15,,,224.85485574000342,225.85470969999733,225.85470969999733,None,2.9401041666666665,1.743140399994445,225.85470969999733,None,Sebastian,001,2020_Dec_15_1334,piloto1,2020.2.5,59.84752048802171,
400,0.02,imagenes/Pescadito.png,0.7172825011486081,None,0,2,2,0,0,35,35,29,,,226.65491645999575,227.65477520000422,227.65477520000422,None,3.34375,1.4774728000047617,227.65477520000422,None,Sebastian,001,2020_Dec_15_1334,piloto1,2020.2.5,59.84752048802171,
400,0.02,,,,0,2,2,0,,,,,,,,,,,,,,,Sebastian,001,2020_Dec_15_1334,piloto1,2020.2.5,59.84752048802171,
1500,0.02,imagenes/Brownie.jpg,0.2838924074864093,None,0,3,3,1,0,0,0,3,,,228.25449424000254,None,229.25461469999573,None,3.34375,2.0099080999934813,229.25461469999573,None,Sebastian,001,2020_Dec_15_1334,piloto1,2020.2.5,59.84752048802171,
1500,0.02,imagenes/Nutella (1).jpg,0.8826531883338111,None,0,3,3,1,0,1,1,12,,,230.32120955999855,231.3211741999985,231.30445110000437,None,3.786458333333333,1.5371169999998529,231.30445110000437,None,Sebastian,001,2020_Dec_15_1334,piloto1,2020.2.5,59.84752048802171,
1500,0.02,imagenes/Canelazo.png,0.6730479360767814,None,0,3,3,1,0,2,2,22,,,231.9375782000061,232.93761079999967,232.93761079999967,None,3.786458333333333,1.6937577999924542,232.93761079999967,None,Sebastian,001,2020_Dec_15_1334,piloto1,2020.2.5,59.84752048802171,
1500,0.02,imagenes/Rollos de canela.png,0.2610974409574519,None,0,3,3,1,0,3,3,34,,,233.6874947599965,None,234.68755729999975,None,3.786458333333333,1.6776773000019602,234.68755729999975,None,Sebastian,001,2020_Dec_15_1334,piloto1,2020.2.5,59.84752048802171,
1500,0.02,imagenes/Muffin de banano.png,0.9610615059009696,None,0,3,3,1,0,4,4,25,,,235.48766144000257,None,236.47071389999473,None,3.6953125,1.6365315999864833,236.47071389999473,None,Sebastian,001,2020_Dec_15_1334,piloto1,2020.2.5,59.84752048802171,
1500,0.02,imagenes/Papas-pollo.jpg,0.08373485417902837,None,0,3,3,1,0,5,5,15,,,237.15409884000547,238.15444830000342,238.15444830000342,None,3.584635416666667,1.6928043000079924,238.15444830000342,None,Sebastian,001,2020_Dec_15_1334,piloto1,2020.2.5,59.84752048802171,
1500,0.02,imagenes/Papas-naturales.jpg,0.37590629905521566,None,0,3,3,1,0,6,6,13,,,238.88774823999557,239.88719799999672,239.88719799999672,None,3.3567708333333335,1.6408926999865798,239.88719799999672,None,Sebastian,001,2020_Dec_15_1334,piloto1,2020.2.5,59.84752048802171,
1500,0.02,imagenes/Leche-de-almendras.jpg,0.3886559457994673,None,0,3,3,1,0,7,7,9,,,240.7538210599989,None,241.73869969999942,None,3.4934895833333335,1.8355651000019861,241.73869969999942,None,Sebastian,001,2020_Dec_15_1334,piloto1,2020.2.5,59.84752048802171,
1500,0.02,imagenes/Papas-limon.jpg,0.5280798509093595,None,0,3,3,1,0,8,8,14,,,242.62038874000137,243.62056159999338,243.62056159999338,None,3.747395833333333,2.7925223000056576,243.62056159999338,None,Sebastian,001,2020_Dec_15_1334,piloto1,2020.2.5,59.84752048802171,
1500,0.02,imagenes/Uvas.jpg,0.4959291644143431,None,0,3,3,1,0,9,9,19,,,245.4704066600054,None,246.45400759999757,None,3.630208333333333,1.5665746000013314,246.45400759999757,None,Sebastian,001,2020_Dec_15_1334,piloto1,2020.2.5,59.84752048802171,
1500,0.02,imagenes/Rosquitas (1).jpg,0.024090340010977873,None,0,3,3,1,0,10,10,17,,,247.10371527999231,None,248.1037260000012,None,3.4153645833333335,1.9611533999996027,248.1037260000012,None,Sebastian,001,2020_Dec_15_1334,piloto1,2020.2.5,59.84752048802171,
1500,0.02,imagenes/Pepinillos.png,0.0038966441241518046,None,0,3,3,1,0,11,11,28,,,249.1369754800049,250.13684180000564,250.13684180000564,None,None,None,250.13684180000564,None,Sebastian,001,2020_Dec_15_1334,piloto1,2020.2.5,59.84752048802171,
1500,0.02,imagenes/Galletas-festival.jpg,0.11306074364032936,None,0,3,3,1,0,12,12,7,,,252.1866661799955,None,253.17023950000294,252.17651119999937,3.4674479166666665,1.8362086999986786,253.17023950000294,252.17651119999937,Sebastian,001,2020_Dec_15_1334,piloto1,2020.2.5,59.84752048802171,
1500,0.02,imagenes/Mango.jpeg,0.4341155418941499,None,0,3,3,1,0,13,13,10,,,254.0699539599984,255.06990240000596,255.06990240000596,None,3.610677083333333,1.5461356000014348,255.06990240000596,None,Sebastian,001,2020_Dec_15_1334,piloto1,2020.2.5,59.84752048802171,
1500,0.02,imagenes/Banano.jpeg,0.2267656716538785,None,0,3,3,1,0,14,14,1,,,255.68668707999458,None,256.6867465999967,None,3.740885416666667,2.1752609999966808,256.6867465999967,None,Sebastian,001,2020_Dec_15_1334,piloto1,2020.2.5,59.84752048802171,
1500,0.02,imagenes/Galletas Tosh.jpg,0.9129693753280027,None,0,3,3,1,0,15,15,6,,,257.95310710000194,258.95321669999976,258.95321669999976,None,4.092447916666667,1.5235972999944352,258.95321669999976,None,Sebastian,001,2020_Dec_15_1334,piloto1,2020.2.5,59.84752048802171,
1500,0.02,imagenes/Kiwi.jpg,0.3929145850942286,None,0,3,3,1,0,16,16,8,,,259.50283981999235,260.5033701999928,260.5033701999928,None,3.838541666666667,2.9763672999979462,260.5033701999928,None,Sebastian,001,2020_Dec_15_1334,piloto1,2020.2.5,59.84752048802171,
1500,0.02,imagenes/Pizzetas.png,0.3295951589873042,None,0,3,3,1,0,17,17,32,,,262.55275897999815,263.5532409000007,263.53622280000127,262.5481989999971,3.838541666666667,1.865310099994531,263.53622280000127,262.5481989999971,Sebastian,001,2020_Dec_15_1334,piloto1,2020.2.5,59.84752048802171,
1500,0.02,imagenes/Pandebono.png,0.8988574378129985,None,0,3,3,1,0,18,18,26,,,264.4862079800019,None,265.4693644999934,None,3.65625,1.6695529999997234,265.4693644999934,None,Sebastian,001,2020_Dec_15_1334,piloto1,2020.2.5,59.84752048802171,
1500,0.02,imagenes/Manzana.jpg,0.4048420327008191,None,0,3,3,1,0,19,19,11,,,266.2529169200046,None,267.2359421000001,None,3.3111979166666665,1.5870645999966655,267.2359421000001,None,Sebastian,001,2020_Dec_15_1334,piloto1,2020.2.5,59.84752048802171,
1500,0.02,imagenes/Popetas.jpg,0.9621625733302204,None,0,3,3,1,0,20,20,16,,,267.95263934000536,None,268.935836699995,None,None,None,268.935836699995,None,Sebastian,001,2020_Dec_15_1334,piloto1,2020.2.5,59.84752048802171,
1500,0.02,imagenes/Alpinito.jpg,0.7416150880621702,None,0,3,3,1,0,21,21,0,,,270.9860971800022,271.98571720000473,271.98571720000473,270.98710369999753,3.48046875,1.8235939999867696,271.98571720000473,270.98710369999753,Sebastian,001,2020_Dec_15_1334,piloto1,2020.2.5,59.84752048802171,
1500,0.02,imagenes/Croissant.jpg,0.5824748589948932,None,0,3,3,1,0,22,22,5,,,272.8859131799923,None,273.8858244000003,None,3.48046875,1.7071434999961639,273.8858244000003,None,Sebastian,001,2020_Dec_15_1334,piloto1,2020.2.5,59.84752048802171,
1500,0.02,imagenes/Pizza.png,0.21192443516553439,None,0,3,3,1,0,23,23,31,,,274.65250916000076,275.65238850000605,275.6355165999994,None,3.3958333333333335,1.6009675999957835,275.6355165999994,None,Sebastian,001,2020_Dec_15_1334,piloto1,2020.2.5,59.84752048802171,
1500,0.02,imagenes/Almojabanas.png,0.6725051200713246,None,0,3,3,1,0,24,24,20,,,276.3523537200002,277.35221129999263,277.35221129999263,None,3.578125,1.507105299999239,277.35221129999263,None,Sebastian,001,2020_Dec_15_1334,piloto1,2020.2.5,59.84752048802171,
1500,0.02,imagenes/Coliflor.jpg,0.3640740491088985,None,0,3,3,1,0,25,25,24,,,277.90229333999446,278.90229280000494,278.90229280000494,None,3.630208333333333,1.7553100999939488,278.90229280000494,None,Sebastian,001,2020_Dec_15_1334,piloto1,2020.2.5,59.84752048802171,
1500,0.02,imagenes/Rollo de queso.png,0.9201641182756888,None,0,3,3,1,0,26,26,33,,,279.7523072999975,280.75230710000324,280.7355074999941,None,3.819010416666667,1.6870198999968125,280.7355074999941,None,Sebastian,001,2020_Dec_15_1334,piloto1,2020.2.5,59.84752048802171,
1500,0.02,imagenes/pistachos.jpg,0.7450869742741464,None,0,3,3,1,0,27,27,30,,,281.4520234200012,282.45222730000387,282.45222730000387,None,3.75390625,1.2247152000054484,282.45222730000387,None,Sebastian,001,2020_Dec_15_1334,piloto1,2020.2.5,59.84752048802171,
1500,0.02,imagenes/Brocoli.jpg,0.24293074945529525,None,0,3,3,1,0,28,28,21,,,282.7186012400023,None,283.70200509999995,None,3.5390625,1.6018484000087483,283.70200509999995,None,Sebastian,001,2020_Dec_15_1334,piloto1,2020.2.5,59.84752048802171,
1500,0.02,imagenes/Chocoramo.jfif.jpg,0.7425528559884101,None,0,3,3,1,0,29,29,4,,,284.36848575999755,285.3684113000054,285.35171160000027,None,3.5390625,1.347469699991052,285.35171160000027,None,Sebastian,001,2020_Dec_15_1334,piloto1,2020.2.5,59.84752048802171,
1500,0.02,imagenes/Papas picantes.jpg,0.524978898672612,None,0,3,3,1,0,30,30,27,,,285.75197403999914,None,286.7350926999934,None,3.3828125,2.804316800000379,286.7350926999934,None,Sebastian,001,2020_Dec_15_1334,piloto1,2020.2.5,59.84752048802171,
1500,0.02,imagenes/bon-bon-bun.jpg,0.7417452724056987,None,0,3,3,1,0,31,31,2,,,288.6183106799959,None,289.6181542999984,None,3.3828125,2.256597999992664,289.6181542999984,None,Sebastian,001,2020_Dec_15_1334,piloto1,2020.2.5,59.84752048802171,
1500,0.02,imagenes/Pescadito.png,0.7172825011486081,None,0,3,3,1,0,32,32,29,,,290.9514971800032,None,291.9350304999971,None,3.3828125,1.937065399994026,291.9350304999971,None,Sebastian,001,2020_Dec_15_1334,piloto1,2020.2.5,59.84752048802171,
1500,0.02,imagenes/salchicha hojaldrada.jpg,0.7119773165481526,None,0,3,3,1,0,33,33,35,,,292.90155891999746,293.9015317000012,293.9015317000012,None,3.3307291666666665,2.157545400012168,293.9015317000012,None,Sebastian,001,2020_Dec_15_1334,piloto1,2020.2.5,59.84752048802171,
1500,0.02,imagenes/Chontaduro.png,0.8693553300418813,None,0,3,3,1,0,34,34,23,,,295.1178648599991,None,296.10121799999615,None,3.4609375,2.0532278000027873,296.10121799999615,None,Sebastian,001,2020_Dec_15_1334,piloto1,2020.2.5,59.84752048802171,
1500,0.02,imagenes/Yogurt-alpina.jpg,0.5445152936222175,None,0,3,3,1,0,35,35,18,,,297.217840359993,None,298.2013089999964,None,3.4609375,1.485332299998845,298.2013089999964,None,Sebastian,001,2020_Dec_15_1334,piloto1,2020.2.5,59.84752048802171,
1500,0.02,,,,0,3,3,1,,,,,,,,,,,,,,,Sebastian,001,2020_Dec_15_1334,piloto1,2020.2.5,59.84752048802171,
