Hertz,volumen,Imagenes,Random,Correcto,trials.thisRepN,trials.thisTrialN,trials.thisN,trials.thisIndex,trials_2.thisRepN,trials_2.thisTrialN,trials_2.thisN,trials_2.thisIndex,Sonido.started,Sonido.stopped,image_2.started,image_2.stopped,slider_2.response,slider_2.rt,slider_2.started,slider_2.stopped,text.started,text.stopped,text_4.started,text_4.stopped,participant,session,date,expName,psychopyVersion,frameRate,
1000,0.02,imagenes\Chocoramo.jfif.jpg,0.7789437122019539,None,0,0,0,2,0,0,0,4,75.8217674799671,None,75.84767640000791,None,None,None,75.84767640000791,None,,,,,t,001,2020_Oct_06_1148,piloto1,2020.2.3,59.99642421382707,
1000,0.02,imagenes\Manzana.jpg,0.5168162194437935,None,0,0,0,2,0,1,1,11,76.83705778000876,None,76.83231329999398,None,3.51953125,0.7795451999991201,76.83231329999398,None,,,,,t,001,2020_Oct_06_1148,piloto1,2020.2.3,59.99642421382707,
1000,0.02,imagenes\Nutella (1).jpg,0.5277483225747329,None,0,0,0,2,0,2,2,12,77.65316305999295,77.66064230000484,77.65496139999595,None,3.51953125,0.12412100000074133,77.65496139999595,None,,,,,t,001,2020_Oct_06_1148,piloto1,2020.2.3,59.99642421382707,
1000,0.02,imagenes\Alpinito.jpg,0.4515332417045813,None,0,0,0,2,0,3,3,0,77.83634738999535,77.84302900001057,77.83748129999731,None,3.0572916666666665,0.17584109999006614,77.83748129999731,None,,,,,t,001,2020_Oct_06_1148,piloto1,2020.2.3,59.99642421382707,
1000,0.02,imagenes\Papas-naturales.jpg,0.15856838916280946,None,0,0,0,2,0,4,4,13,78.05311455999617,78.05357400001958,78.0471569999936,None,2.822916666666667,0.16572579997591674,78.0471569999936,None,,,,,t,001,2020_Oct_06_1148,piloto1,2020.2.3,59.99642421382707,
1000,0.02,imagenes\Yogurt-alpina.jpg,0.21540995091807813,None,0,0,0,2,0,5,5,18,78.25320425999234,None,78.25218999999925,None,3.3177083333333335,0.17789419999462552,78.25218999999925,None,,,,,t,001,2020_Oct_06_1148,piloto1,2020.2.3,59.99642421382707,
1000,0.02,imagenes\Kiwi.jpg,0.5893907384852061,None,0,0,0,2,0,6,6,8,78.45339713001158,78.46958110001287,78.45989440000267,None,3.98828125,0.10347669999464415,78.45989440000267,None,,,,,t,001,2020_Oct_06_1148,piloto1,2020.2.3,59.99642421382707,
1000,0.02,imagenes\Croissant.jpg,0.6152458173421255,None,0,0,0,2,0,7,7,5,78.61974079001811,None,78.60986039999989,None,4.515625,0.12025409998022951,78.60986039999989,None,,,,,t,001,2020_Oct_06_1148,piloto1,2020.2.3,59.99642421382707,
1000,0.02,imagenes\Rosquitas (1).jpg,0.3035383390851263,None,0,0,0,2,0,8,8,17,78.78686158999335,78.79329709999729,78.78686900000321,None,4.893229166666666,0.1250208000128623,78.78686900000321,None,,,,,t,001,2020_Oct_06_1148,piloto1,2020.2.3,59.99642421382707,
1000,0.02,imagenes\Mango.jpeg,0.555669112372461,None,0,0,0,2,0,9,9,10,78.96966088999761,None,78.96454559999984,None,5.348958333333334,0.13154390000272542,78.96454559999984,None,,,,,t,001,2020_Oct_06_1148,piloto1,2020.2.3,59.99642421382707,
1000,0.02,imagenes\Brownie.jpg,0.17000143351927688,None,0,0,0,2,0,10,10,3,79.17021492001368,79.17371960001765,79.16804280001088,None,5.23828125,0.3278578000026755,79.16804280001088,None,,,,,t,001,2020_Oct_06_1148,piloto1,2020.2.3,59.99642421382707,
1000,0.02,imagenes\Galletas-festival.jpg,0.36121121246191135,None,0,0,0,2,0,11,11,7,79.55289578999509,79.55754000000888,79.55167420001817,None,4.626302083333333,0.11097169999266043,79.55167420001817,None,,,,,t,001,2020_Oct_06_1148,piloto1,2020.2.3,59.99642421382707,
1000,0.02,imagenes\Papas-limon.jpg,0.020692288100133793,None,0,0,0,2,0,12,12,14,79.68646242999239,None,79.69295510000666,None,3.740885416666667,0.1383577999949921,79.69295510000666,None,,,,,t,001,2020_Oct_06_1148,piloto1,2020.2.3,59.99642421382707,
1000,0.02,imagenes\Galletas Tosh.jpg,0.478088790487872,None,0,0,0,2,0,13,13,6,79.88656569001614,None,79.88378460000968,None,3.08984375,0.11170229999697767,79.88378460000968,None,,,,,t,001,2020_Oct_06_1148,piloto1,2020.2.3,59.99642421382707,
1000,0.02,imagenes\Uvas.jpg,0.7734382152670648,None,0,0,0,2,0,14,14,19,80.03630045999307,None,80.04206480001449,None,2.477864583333333,0.12164830000256188,80.04206480001449,None,,,,,t,001,2020_Oct_06_1148,piloto1,2020.2.3,59.99642421382707,
1000,0.02,imagenes\bon-bon-bun.jpg,0.7387922093313524,None,0,0,0,2,0,15,15,2,80.20289596001385,None,80.20308120001573,None,1.64453125,0.6252427999861538,80.20308120001573,None,,,,,t,001,2020_Oct_06_1148,piloto1,2020.2.3,59.99642421382707,
1000,0.02,imagenes\Popetas.jpg,0.07650200324054446,None,0,0,0,2,0,16,16,16,80.88671729000635,None,80.88887150000664,None,1.87890625,0.09079670000937767,80.88887150000664,None,,,,,t,001,2020_Oct_06_1148,piloto1,2020.2.3,59.99642421382707,
1000,0.02,imagenes\Leche-de-almendras.jpg,0.36073876480313727,None,0,0,0,2,0,17,17,9,81.12025793999783,None,81.1171963000088,None,2.4453125,0.018846299994038418,81.1171963000088,None,,,,,t,001,2020_Oct_06_1148,piloto1,2020.2.3,59.99642421382707,
1000,0.02,imagenes\Papas-pollo.jpg,0.6683114062971784,None,0,0,0,2,0,18,18,15,81.16509856001358,81.17407770000864,81.16776620000019,None,3.08984375,0.1276763000059873,81.16776620000019,None,,,,,t,001,2020_Oct_06_1148,piloto1,2020.2.3,59.99642421382707,
1000,0.02,imagenes\Banano.jpeg,0.651633055306917,None,0,0,0,2,0,19,19,1,81.3363900599943,81.34361630000058,81.33684970001923,None,None,None,81.33684970001923,None,,,,,t,001,2020_Oct_06_1148,piloto1,2020.2.3,59.99642421382707,
1000,0.02,,,,0,0,0,2,,,,,,,,,,,,,,,,,t,001,2020_Oct_06_1148,piloto1,2020.2.3,59.99642421382707,
1000,0.0,imagenes\Banano.jpeg,0.651633055306917,None,0,1,1,3,0,0,0,1,82.36992828999064,None,82.36325090000173,82.36325090000173,2.5625,0.31536419998155907,82.36325090000173,82.36325090000173,,,,,t,001,2020_Oct_06_1148,piloto1,2020.2.3,59.99642421382707,
1000,0.0,imagenes\Brownie.jpg,0.17000143351927688,None,0,1,1,3,0,1,1,3,82.73652199000935,82.7410291999986,82.73363820000668,None,3.265625,0.13092429999960586,82.73363820000668,None,,,,,t,001,2020_Oct_06_1148,piloto1,2020.2.3,59.99642421382707,
1000,0.0,imagenes\Yogurt-alpina.jpg,0.21540995091807813,None,0,1,1,3,0,2,2,18,82.90304505999666,82.90276240001549,82.89421369999764,None,3.877604166666667,0.11928289997740649,82.89421369999764,None,,,,,t,001,2020_Oct_06_1148,piloto1,2020.2.3,59.99642421382707,
1000,0.0,imagenes\Kiwi.jpg,0.5893907384852061,None,0,1,1,3,0,3,3,8,83.03632543000276,83.0528675999958,83.03684869999415,None,4.385416666666667,0.12652250000974163,83.03684869999415,None,,,,,t,001,2020_Oct_06_1148,piloto1,2020.2.3,59.99642421382707,
1000,0.0,imagenes\Croissant.jpg,0.6152458173421255,None,0,1,1,3,0,4,4,5,83.2027783599915,None,83.20931810000911,None,4.782552083333334,0.13739560000249185,83.20931810000911,None,,,,,t,001,2020_Oct_06_1148,piloto1,2020.2.3,59.99642421382707,
1000,0.0,imagenes\Rosquitas (1).jpg,0.3035383390851263,None,0,1,1,3,0,5,5,17,83.3860758600058,83.39026400001603,83.38480140001047,None,3.766927083333333,0.14515120000578463,83.38480140001047,None,,,,,t,001,2020_Oct_06_1148,piloto1,2020.2.3,59.99642421382707,
1000,0.0,imagenes\Papas-limon.jpg,0.020692288100133793,None,0,1,1,3,0,6,6,14,83.55306103001931,83.5693339999998,83.5579723000119,None,3.0442708333333335,0.13808410000638105,83.5579723000119,None,,,,,t,001,2020_Oct_06_1148,piloto1,2020.2.3,59.99642421382707,
1000,0.0,imagenes\Nutella (1).jpg,0.5277483225747329,None,0,1,1,3,0,7,7,12,83.7198637300171,None,83.72670910001034,None,2.69921875,0.10462730002473108,83.72670910001034,None,,,,,t,001,2020_Oct_06_1148,piloto1,2020.2.3,59.99642421382707,
1000,0.0,imagenes\bon-bon-bun.jpg,0.7387922093313524,None,0,1,1,3,0,8,8,2,83.86978936000378,None,83.86913110001478,None,2.640625,0.09323520000907592,83.86913110001478,None,,,,,t,001,2020_Oct_06_1148,piloto1,2020.2.3,59.99642421382707,
1000,0.0,imagenes\Popetas.jpg,0.07650200324054446,None,0,1,1,3,0,9,9,16,84.01944458999787,84.0261523000081,84.01945670001442,None,3.36328125,0.12623799999710172,84.01945670001442,None,,,,,t,001,2020_Oct_06_1148,piloto1,2020.2.3,59.99642421382707,
1000,0.0,imagenes\Papas-naturales.jpg,0.15856838916280946,None,0,1,1,3,0,10,10,13,84.16991563001648,None,84.1757303000195,None,3.897135416666667,0.12107519997516647,84.1757303000195,None,,,,,t,001,2020_Oct_06_1148,piloto1,2020.2.3,59.99642421382707,
1000,0.0,imagenes\Galletas-festival.jpg,0.36121121246191135,None,0,1,1,3,0,11,11,7,84.33624855999369,None,84.3360040000116,None,4.359375,0.11109760002000257,84.3360040000116,None,,,,,t,001,2020_Oct_06_1148,piloto1,2020.2.3,59.99642421382707,
1000,0.0,imagenes\Papas-pollo.jpg,0.6683114062971784,None,0,1,1,3,0,12,12,15,84.46967362999567,84.48625270000775,84.4728088999982,None,4.489583333333333,0.15818169998237863,84.4728088999982,None,,,,,t,001,2020_Oct_06_1148,piloto1,2020.2.3,59.99642421382707,
1000,0.0,imagenes\Leche-de-almendras.jpg,0.36073876480313727,None,0,1,1,3,0,13,13,9,84.70283592000487,None,84.70882860000711,None,3.3177083333333335,0.09178359998622909,84.70882860000711,None,,,,,t,001,2020_Oct_06_1148,piloto1,2020.2.3,59.99642421382707,
1000,0.0,imagenes\Mango.jpeg,0.555669112372461,None,0,1,1,3,0,14,14,10,84.83637616000487,None,84.8338042999967,None,2.666666666666667,0.11327520001213998,84.8338042999967,None,,,,,t,001,2020_Oct_06_1148,piloto1,2020.2.3,59.99642421382707,
1000,0.0,imagenes\Alpinito.jpg,0.4515332417045813,None,0,1,1,3,0,15,15,0,85.00319709000178,85.00400310000987,84.9980210000067,None,2.608072916666667,0.11472410001442768,84.9980210000067,None,,,,,t,001,2020_Oct_06_1148,piloto1,2020.2.3,59.99642421382707,
1000,0.0,imagenes\Galletas Tosh.jpg,0.478088790487872,None,0,1,1,3,0,16,16,6,85.15264906000812,85.16223560000071,85.15573250001762,None,3.916666666666667,0.12319509999360889,85.15573250001762,None,,,,,t,001,2020_Oct_06_1148,piloto1,2020.2.3,59.99642421382707,
1000,0.0,imagenes\Manzana.jpg,0.5168162194437935,None,0,1,1,3,0,17,17,11,85.31968295999104,None,85.3257283999992,None,4.489583333333333,0.12215309997554868,85.3257283999992,None,,,,,t,001,2020_Oct_06_1148,piloto1,2020.2.3,59.99642421382707,
1000,0.0,imagenes\Chocoramo.jfif.jpg,0.7789437122019539,None,0,1,1,3,0,18,18,4,85.48608986000181,None,85.49310710001737,None,3.4348958333333335,0.12003759999061003,85.49310710001737,None,,,,,t,001,2020_Oct_06_1148,piloto1,2020.2.3,59.99642421382707,
1000,0.0,imagenes\Uvas.jpg,0.7734382152670648,None,0,1,1,3,0,19,19,19,85.65293716001906,85.66377129999455,85.65789030000451,None,2.85546875,0.10334190001594834,85.65789030000451,None,,,,,t,001,2020_Oct_06_1148,piloto1,2020.2.3,59.99642421382707,
1000,0.0,,,,0,1,1,3,,,,,,,,,,,,,,,,,t,001,2020_Oct_06_1148,piloto1,2020.2.3,59.99642421382707,
1500,0.02,imagenes\Popetas.jpg,0.07650200324054446,None,0,2,2,1,0,0,0,16,85.83620262000477,None,85.83262299999478,None,3.779947916666667,0.13220049999654293,85.83262299999478,None,,,,,t,001,2020_Oct_06_1148,piloto1,2020.2.3,59.99642421382707,
1500,0.02,imagenes\Uvas.jpg,0.7734382152670648,None,0,2,2,1,0,1,1,19,86.00298056000611,None,85.99639810001827,None,4.28125,0.09974060000968166,85.99639810001827,None,,,,,t,001,2020_Oct_06_1148,piloto1,2020.2.3,59.99642421382707,
1500,0.02,imagenes\Chocoramo.jfif.jpg,0.7789437122019539,None,0,2,2,1,0,2,2,4,86.15276108999387,86.14949460001662,86.14328509999905,None,3.0572916666666665,0.2855564999917988,86.14328509999905,None,,,,,t,001,2020_Oct_06_1148,piloto1,2020.2.3,59.99642421382707,
1500,0.02,imagenes\Papas-naturales.jpg,0.15856838916280946,None,0,2,2,1,0,3,3,13,86.45297243000823,86.46938900000532,86.45921190001536,None,3.962239583333333,0.15374270000029355,86.45921190001536,None,,,,,t,001,2020_Oct_06_1148,piloto1,2020.2.3,59.99642421382707,
1500,0.02,imagenes\Croissant.jpg,0.6152458173421255,None,0,2,2,1,0,4,4,5,86.65277816000162,86.66424220000044,86.65768870001193,None,3.2591145833333335,0.15499999999883585,86.65768870001193,None,,,,,t,001,2020_Oct_06_1148,piloto1,2020.2.3,59.99642421382707,
1500,0.02,imagenes\bon-bon-bun.jpg,0.7387922093313524,None,0,2,2,1,0,5,5,2,86.85282476001885,86.86334790001274,86.85789810001734,None,3.51953125,0.25702410002122633,86.85789810001734,None,,,,,t,001,2020_Oct_06_1148,piloto1,2020.2.3,59.99642421382707,
1500,0.02,imagenes\Manzana.jpg,0.5168162194437935,None,0,2,2,1,0,6,6,11,87.15251755999634,None,87.15915740001947,None,3.3372395833333335,0.16982779998215847,87.15915740001947,None,,,,,t,001,2020_Oct_06_1148,piloto1,2020.2.3,59.99642421382707,
1500,0.02,imagenes\Alpinito.jpg,0.4515332417045813,None,0,2,2,1,0,7,7,0,87.3864630899916,None,87.38390370001434,None,3.20703125,0.09647790002054535,87.38390370001434,None,,,,,t,001,2020_Oct_06_1148,piloto1,2020.2.3,59.99642421382707,
1500,0.02,imagenes\Galletas Tosh.jpg,0.478088790487872,None,0,2,2,1,0,8,8,6,87.51965346001089,None,87.52630800000043,None,4.053385416666667,0.1207097000151407,87.52630800000043,None,,,,,t,001,2020_Oct_06_1148,piloto1,2020.2.3,59.99642421382707,
1500,0.02,imagenes\Yogurt-alpina.jpg,0.21540995091807813,None,0,2,2,1,0,9,9,18,87.68631856000866,None,87.67775649999385,None,2.783854166666667,0.18526710002333857,87.67775649999385,None,,,,,t,001,2020_Oct_06_1148,piloto1,2020.2.3,59.99642421382707,
1500,0.02,imagenes\Kiwi.jpg,0.5893907384852061,None,0,2,2,1,0,10,10,8,87.88604422999197,87.90260190001572,87.8867220999964,None,2.770833333333333,0.10936189998756163,87.8867220999964,None,,,,,t,001,2020_Oct_06_1148,piloto1,2020.2.3,59.99642421382707,
1500,0.02,imagenes\Brownie.jpg,0.17000143351927688,None,0,2,2,1,0,11,11,3,88.05261959001655,88.05384700000286,88.04779330000747,None,2.673177083333333,0.11483519998728298,88.04779330000747,None,,,,,t,001,2020_Oct_06_1148,piloto1,2020.2.3,59.99642421382707,
1500,0.02,imagenes\Rosquitas (1).jpg,0.3035383390851263,None,0,2,2,1,0,12,12,17,88.20275486001628,88.20783400000073,88.20232680000481,None,3.923177083333333,0.1275393000105396,88.20232680000481,None,,,,,t,001,2020_Oct_06_1148,piloto1,2020.2.3,59.99642421382707,
1500,0.02,imagenes\Nutella (1).jpg,0.5277483225747329,None,0,2,2,1,0,13,13,12,88.35296513000503,88.36925139999948,88.35832480000681,None,4.268229166666667,0.15449169999919832,88.35832480000681,None,,,,,t,001,2020_Oct_06_1148,piloto1,2020.2.3,59.99642421382707,
1500,0.02,imagenes\Leche-de-almendras.jpg,0.36073876480313727,None,0,2,2,1,0,14,14,9,88.60256664999179,None,88.60209349999786,None,3.506510416666667,0.08014720000210218,88.60209349999786,None,,,,,t,001,2020_Oct_06_1148,piloto1,2020.2.3,59.99642421382707,
1500,0.02,imagenes\Galletas-festival.jpg,0.36121121246191135,None,0,2,2,1,0,15,15,7,88.71991626001545,None,88.72207630000776,None,2.85546875,0.10864979997859336,88.72207630000776,None,,,,,t,001,2020_Oct_06_1148,piloto1,2020.2.3,59.99642421382707,
1500,0.02,imagenes\Papas-limon.jpg,0.020692288100133793,None,0,2,2,1,0,16,16,14,88.85300262999954,88.8692022000032,88.85696020000614,None,2.725260416666667,0.12261379999108613,88.85696020000614,None,,,,,t,001,2020_Oct_06_1148,piloto1,2020.2.3,59.99642421382707,
1500,0.02,imagenes\Mango.jpeg,0.555669112372461,None,0,2,2,1,0,17,17,10,89.01934046001406,None,89.01553870001226,None,3.578125,0.1468622999964282,89.01553870001226,None,,,,,t,001,2020_Oct_06_1148,piloto1,2020.2.3,59.99642421382707,
1500,0.02,imagenes\Banano.jpeg,0.651633055306917,None,0,2,2,1,0,18,18,1,89.20267496001907,None,89.19540120000602,None,3.994791666666667,0.11691709997830912,89.19540120000602,None,,,,,t,001,2020_Oct_06_1148,piloto1,2020.2.3,59.99642421382707,
1500,0.02,imagenes\Papas-pollo.jpg,0.6683114062971784,None,0,2,2,1,0,19,19,15,89.33587803001865,None,89.3394610999967,None,4.346354166666667,0.12406370000098832,89.3394610999967,None,,,,,t,001,2020_Oct_06_1148,piloto1,2020.2.3,59.99642421382707,
1500,0.02,,,,0,2,2,1,,,,,,,,,,,,,,,,,t,001,2020_Oct_06_1148,piloto1,2020.2.3,59.99642421382707,
400,0.02,imagenes\Leche-de-almendras.jpg,0.36073876480313727,None,0,3,3,0,0,0,0,9,89.55262785000377,89.56229450000683,89.55448740001884,None,4.61328125,0.06106770000769757,89.55448740001884,None,,,,,t,001,2020_Oct_06_1148,piloto1,2020.2.3,59.99642421382707,
400,0.02,imagenes\Manzana.jpg,0.5168162194437935,None,0,3,3,0,0,1,1,11,89.65300946001662,89.66461890001665,89.6584189000132,None,3.12890625,0.2874997000035364,89.6584189000132,None,,,,,t,001,2020_Oct_06_1148,piloto1,2020.2.3,59.99642421382707,
400,0.02,imagenes\Yogurt-alpina.jpg,0.21540995091807813,None,0,3,3,0,0,2,2,18,89.98614076001104,None,89.97920430000522,None,2.9205729166666665,0.16488070000195876,89.97920430000522,None,,,,,t,001,2020_Oct_06_1148,piloto1,2020.2.3,59.99642421382707,
400,0.02,imagenes\Kiwi.jpg,0.5893907384852061,None,0,3,3,0,0,3,3,8,90.16908133000834,None,90.17150339999353,None,2.848958333333333,0.12506669998401776,90.17150339999353,None,,,,,t,001,2020_Oct_06_1148,piloto1,2020.2.3,59.99642421382707,
400,0.02,imagenes\Brownie.jpg,0.17000143351927688,None,0,3,3,0,0,4,4,3,90.35263869000482,None,90.34474770000088,None,3.0247395833333335,0.13433319999603555,90.34474770000088,None,,,,,t,001,2020_Oct_06_1148,piloto1,2020.2.3,59.99642421382707,
400,0.02,imagenes\Chocoramo.jfif.jpg,0.7789437122019539,None,0,3,3,0,0,5,5,4,90.51947495999048,90.53109289999702,90.52411830000347,None,3.779947916666667,0.12303610000526533,90.52411830000347,None,,,,,t,001,2020_Oct_06_1148,piloto1,2020.2.3,59.99642421382707,
400,0.02,imagenes\Papas-naturales.jpg,0.15856838916280946,None,0,3,3,0,0,6,6,13,90.66925673000515,None,90.67573459999403,None,4.203125,0.137969899980817,90.67573459999403,None,,,,,t,001,2020_Oct_06_1148,piloto1,2020.2.3,59.99642421382707,
400,0.02,imagenes\Rosquitas (1).jpg,0.3035383390851263,None,0,3,3,0,0,7,7,17,90.85253196000122,None,90.85585849999916,None,4.372395833333333,0.14115909999236465,90.85585849999916,None,,,,,t,001,2020_Oct_06_1148,piloto1,2020.2.3,59.99642421382707,
400,0.02,imagenes\Alpinito.jpg,0.4515332417045813,None,0,3,3,0,0,8,8,0,91.05287769000279,None,91.04531069999211,None,3.3697916666666665,0.13449699999182485,91.04531069999211,None,,,,,t,001,2020_Oct_06_1148,piloto1,2020.2.3,59.99642421382707,
400,0.02,imagenes\bon-bon-bun.jpg,0.7387922093313524,None,0,3,3,0,0,9,9,2,91.21962186001474,91.22844259999692,91.22266319999471,None,2.829427083333333,0.13873979999334551,91.22266319999471,None,,,,,t,001,2020_Oct_06_1148,piloto1,2020.2.3,59.99642421382707,
400,0.02,imagenes\Nutella (1).jpg,0.5277483225747329,None,0,3,3,0,0,10,10,12,91.38587093001115,None,91.39397570001893,None,2.81640625,0.15455440001096576,91.39397570001893,None,,,,,t,001,2020_Oct_06_1148,piloto1,2020.2.3,59.99642421382707,
400,0.02,imagenes\Uvas.jpg,0.7734382152670648,None,0,3,3,0,0,11,11,19,91.58618486000341,91.58564299999853,91.57791300001554,None,3.760416666666667,0.11930610000854358,91.57791300001554,None,,,,,t,001,2020_Oct_06_1148,piloto1,2020.2.3,59.99642421382707,
400,0.02,imagenes\Croissant.jpg,0.6152458173421255,None,0,3,3,0,0,12,12,5,91.7359579600161,91.75068530000863,91.74331059999531,None,4.33984375,0.13735899998573586,91.74331059999531,None,,,,,t,001,2020_Oct_06_1148,piloto1,2020.2.3,59.99642421382707,
400,0.02,imagenes\Banano.jpeg,0.651633055306917,None,0,3,3,0,0,13,13,1,91.91950506001012,None,91.91346670000348,None,3.4283854166666665,0.15055040002334863,91.91346670000348,None,,,,,t,001,2020_Oct_06_1148,piloto1,2020.2.3,59.99642421382707,
400,0.02,imagenes\Galletas-festival.jpg,0.36121121246191135,None,0,3,3,0,0,14,14,7,92.10227105999365,None,92.0993328000186,None,3.1354166666666665,0.07888549999915995,92.0993328000186,None,,,,,t,001,2020_Oct_06_1148,piloto1,2020.2.3,59.99642421382707,
400,0.02,imagenes\Papas-limon.jpg,0.020692288100133793,None,0,3,3,0,0,15,15,14,92.2028144299984,92.21897590000299,92.20752500000526,None,3.01171875,0.17220550001366064,92.20752500000526,None,,,,,t,001,2020_Oct_06_1148,piloto1,2020.2.3,59.99642421382707,
400,0.02,imagenes\Mango.jpeg,0.555669112372461,None,0,3,3,0,0,16,16,10,92.41949286000454,92.4229825999937,92.41586290000123,None,3.994791666666667,0.1463915000203997,92.41586290000123,None,,,,,t,001,2020_Oct_06_1148,piloto1,2020.2.3,59.99642421382707,
400,0.02,imagenes\Galletas Tosh.jpg,0.478088790487872,None,0,3,3,0,0,17,17,6,92.60247055999935,92.61491609999212,92.60813920001965,None,4.190104166666667,0.1545332999958191,92.60813920001965,None,,,,,t,001,2020_Oct_06_1148,piloto1,2020.2.3,59.99642421382707,
400,0.02,imagenes\Popetas.jpg,0.07650200324054446,None,0,3,3,0,0,18,18,16,92.85256364999805,None,92.84895800001686,None,3.3502604166666665,0.08225440001115203,92.84895800001686,None,,,,,t,001,2020_Oct_06_1148,piloto1,2020.2.3,59.99642421382707,
400,0.02,imagenes\Papas-pollo.jpg,0.6683114062971784,None,0,3,3,0,0,19,19,15,92.9526325300103,None,92.95654000001377,None,3.12890625,0.13987040001666173,92.95654000001377,None,,,,,t,001,2020_Oct_06_1148,piloto1,2020.2.3,59.99642421382707,
400,0.02,,,,0,3,3,0,,,,,,,,,,,,,,,,,t,001,2020_Oct_06_1148,piloto1,2020.2.3,59.99642421382707,
,,,,,,,,,,,,,,,,,,,,,93.18615690001752,None,96.2226898999943,None,,,,,,,
