Hertz,volumen,Imagenes,Random,Correcto,trials.thisRepN,trials.thisTrialN,trials.thisN,trials.thisIndex,trials_2.thisRepN,trials_2.thisTrialN,trials_2.thisN,trials_2.thisIndex,mensaje_intro.started,mensaje_intro.stopped,key_resp.keys,key_resp.rt,key_resp.started,key_resp.stopped,mensaje_intro_2.started,mensaje_intro_2.stopped,key_resp_2.keys,key_resp_2.rt,key_resp_2.started,key_resp_2.stopped,text_prueba.started,text_prueba.stopped,key_resp_3.keys,key_resp_3.rt,key_resp_3.started,key_resp_3.stopped,sonido_prueba.started,sonido_prueba.stopped,image_prueba.started,image_prueba.stopped,slider_prueba.response,slider_prueba.rt,slider_prueba.started,slider_prueba.stopped,sonido_prueba_2.started,sonido_prueba_2.stopped,image_prueba_2.started,image_prueba_2.stopped,slider_prueba_2.response,slider_prueba_2.rt,slider_prueba_2.started,slider_prueba_2.stopped,text_prueba_2.started,text_prueba_2.stopped,key_resp_4.keys,key_resp_4.rt,key_resp_4.started,key_resp_4.stopped,sonido_exp.started,sonido_exp.stopped,image_exp.started,image_exp.stopped,slider_exp.response,slider_exp.rt,slider_exp.started,slider_exp.stopped,text_subasta1.started,text_subasta1.stopped,key_resp_5.keys,key_resp_5.rt,key_resp_5.started,key_resp_5.stopped,text_subasta2.started,text_subasta2.stopped,key_resp_6.keys,key_resp_6.rt,key_resp_6.started,key_resp_6.stopped,text.started,text.stopped,key_resp_7.keys,key_resp_7.rt,key_resp_7.started,key_resp_7.stopped,text_4.started,text_4.stopped,key_resp_8.keys,key_resp_8.rt,key_resp_8.started,key_resp_8.stopped,text_producto.started,text_producto.stopped,image.started,image.stopped,key_resp_9.keys,key_resp_9.rt,key_resp_9.started,key_resp_9.stopped,texto_final.started,texto_final.stopped,key_resp_10.keys,key_resp_10.rt,key_resp_10.started,key_resp_10.stopped,text_2.started,text_2.stopped,key_resp_11.keys,key_resp_11.rt,key_resp_11.started,key_resp_11.stopped,participant,session,date,expName,psychopyVersion,frameRate,
,,,,,,,,,,,,,11.654761100013275,None,space,5.337202499969862,11.654761100013275,None,,,,,,,,,,,,,,,,,,,,,,,,,,,,,,,,,,,,,,,,,,,,,,,,,,,,,,,,,,,,,,,,,,,,,,,,,,,,,,,,,,,,,,,t,001,2021_Jan_09_0116,piloto1,2020.2.5,59.860489154847656,
,,,,,,,,,,,,,,,,,,,17.011725099990144,None,space,2.9649537000223063,17.011725099990144,None,,,,,,,,,,,,,,,,,,,,,,,,,,,,,,,,,,,,,,,,,,,,,,,,,,,,,,,,,,,,,,,,,,,,,,,,,,,,,,,,,t,001,2021_Jan_09_0116,piloto1,2020.2.5,59.860489154847656,
,,,,,,,,,,,,,,,,,,,,,,,,,19.994398800015915,None,space,1.4475281999912113,19.994398800015915,None,,,,,,,,,,,,,,,,,,,,,,,,,,,,,,,,,,,,,,,,,,,,,,,,,,,,,,,,,,,,,,,,,,,,,,,,,,,t,001,2021_Jan_09_0116,piloto1,2020.2.5,59.860489154847656,
,,,,,,,,,,,,,,,,,,,,,,,,,,,,,,,21.461161580024054,None,22.467153200006578,None,None,None,22.467153200006578,None,23.477468979981495,None,24.485454300011043,None,4.697916666666667,1.6188106999616139,24.485454300011043,None,25.11114870000165,None,space,2.492124199983664,25.11114870000165,None,,,,,,,,,,,,,,,,,,,,,,,,,,,,,,,,,,,,,,,,,,,,,,,,,,,,,t,001,2021_Jan_09_0116,piloto1,2020.2.5,59.860489154847656,
1500,0.02,imagenes/Yogurt-alpina.jpg,0.5445152936222175,None,0,0,0,1,0,0,0,18,,,,,,,,,,,,,,,,,,,,,,,,,,,,,,,,,,,,,,,,,27.711514680006076,None,28.693788899981882,None,None,None,28.693788899981882,None,,,,,,,,,,,,,,,,,,,,,,,,,,,,,,,,,,,,,,,,,,,,,t,001,2021_Jan_09_0116,piloto1,2020.2.5,59.860489154847656,
1500,0.02,imagenes/Rosquitas (1).jpg,0.024090340010977873,None,0,0,0,1,0,1,1,17,,,,,,,,,,,,,,,,,,,,,,,,,,,,,,,,,,,,,,,,,29.694198519981,None,30.677266300015617,None,3.44140625,1.3173859999515116,30.677266300015617,None,,,,,,,,,,,,,,,,,,,,,,,,,,,,,,,,,,,,,,,,,,,,,t,001,2021_Jan_09_0116,piloto1,2020.2.5,59.860489154847656,
1500,0.02,imagenes/Mango.jpeg,0.4341155418941499,None,0,0,0,1,0,2,2,10,,,,,,,,,,,,,,,,,,,,,,,,,,,,,,,,,,,,,,,,,31.043819059967063,None,32.04408690001583,None,3.604166666666667,1.1044458000105806,32.04408690001583,None,,,,,,,,,,,,,,,,,,,,,,,,,,,,,,,,,,,,,,,,,,,,,t,001,2021_Jan_09_0116,piloto1,2020.2.5,59.860489154847656,
1500,0.02,imagenes/bon-bon-bun.jpg,0.7417452724056987,None,0,0,0,1,0,3,3,2,,,,,,,,,,,,,,,,,,,,,,,,,,,,,,,,,,,,,,,,,32.210954839974875,33.210658200026955,33.210658200026955,None,3.604166666666667,1.1393872000044212,33.210658200026955,None,,,,,,,,,,,,,,,,,,,,,,,,,,,,,,,,,,,,,,,,,,,,,t,001,2021_Jan_09_0116,piloto1,2020.2.5,59.860489154847656,
1500,0.02,imagenes/Pizzetas.png,0.3295951589873042,None,0,0,0,1,0,4,4,32,,,,,,,,,,,,,,,,,,,,,,,,,,,,,,,,,,,,,,,,,33.3940720600076,None,34.39381420001155,None,3.604166666666667,1.1908168999943882,34.39381420001155,None,,,,,,,,,,,,,,,,,,,,,,,,,,,,,,,,,,,,,,,,,,,,,t,001,2021_Jan_09_0116,piloto1,2020.2.5,59.860489154847656,
1500,0.02,imagenes/Papas-pollo.jpg,0.08373485417902837,None,0,0,0,1,0,5,5,15,,,,,,,,,,,,,,,,,,,,,,,,,,,,,,,,,,,,,,,,,34.61088717999519,35.610800999973435,35.610800999973435,None,3.604166666666667,1.1588638999965042,35.610800999973435,None,,,,,,,,,,,,,,,,,,,,,,,,,,,,,,,,,,,,,,,,,,,,,t,001,2021_Jan_09_0116,piloto1,2020.2.5,59.860489154847656,
1500,0.02,imagenes/Chocoramo.jfif.jpg,0.7425528559884101,None,0,0,0,1,0,6,6,4,,,,,,,,,,,,,,,,,,,,,,,,,,,,,,,,,,,,,,,,,35.81026746000862,None,36.793533199990634,None,3.604166666666667,1.1465366000193171,36.793533199990634,None,,,,,,,,,,,,,,,,,,,,,,,,,,,,,,,,,,,,,,,,,,,,,t,001,2021_Jan_09_0116,piloto1,2020.2.5,59.860489154847656,
1500,0.02,imagenes/Nutella (1).jpg,0.8826531883338111,None,0,0,0,1,0,7,7,12,,,,,,,,,,,,,,,,,,,,,,,,,,,,,,,,,,,,,,,,,36.97723057997064,37.97688889998244,37.97688889998244,None,3.604166666666667,1.204254599986598,37.97688889998244,None,,,,,,,,,,,,,,,,,,,,,,,,,,,,,,,,,,,,,,,,,,,,,t,001,2021_Jan_09_0116,piloto1,2020.2.5,59.860489154847656,
1500,0.02,imagenes/Rollos de canela.png,0.2610974409574519,None,0,0,0,1,0,8,8,34,,,,,,,,,,,,,,,,,,,,,,,,,,,,,,,,,,,,,,,,,38.22689856000943,None,39.2105462999898,None,3.604166666666667,1.1340398999745958,39.2105462999898,None,,,,,,,,,,,,,,,,,,,,,,,,,,,,,,,,,,,,,,,,,,,,,t,001,2021_Jan_09_0116,piloto1,2020.2.5,59.860489154847656,
1500,0.02,imagenes/Galletas Tosh.jpg,0.9129693753280027,None,0,0,0,1,0,9,9,6,,,,,,,,,,,,,,,,,,,,,,,,,,,,,,,,,,,,,,,,,39.39389265998034,40.393379500019364,40.393379500019364,None,3.604166666666667,1.1422521999920718,40.393379500019364,None,,,,,,,,,,,,,,,,,,,,,,,,,,,,,,,,,,,,,,,,,,,,,t,001,2021_Jan_09_0116,piloto1,2020.2.5,59.860489154847656,
1500,0.02,imagenes/pistachos.jpg,0.7450869742741464,None,0,0,0,1,0,10,10,30,,,,,,,,,,,,,,,,,,,,,,,,,,,,,,,,,,,,,,,,,40.560090179991676,41.56028069998138,41.54351340001449,None,3.604166666666667,1.1805044999928214,41.54351340001449,None,,,,,,,,,,,,,,,,,,,,,,,,,,,,,,,,,,,,,,,,,,,,,t,001,2021_Jan_09_0116,piloto1,2020.2.5,59.860489154847656,
1500,0.02,imagenes/Galletas-festival.jpg,0.11306074364032936,None,0,0,0,1,0,11,11,7,,,,,,,,,,,,,,,,,,,,,,,,,,,,,,,,,,,,,,,,,41.76018968000426,42.7601505999919,42.7601505999919,None,3.604166666666667,1.1707509999978356,42.7601505999919,None,,,,,,,,,,,,,,,,,,,,,,,,,,,,,,,,,,,,,,,,,,,,,t,001,2021_Jan_09_0116,piloto1,2020.2.5,59.860489154847656,
1500,0.02,imagenes/Popetas.jpg,0.9621625733302204,None,0,0,0,1,0,12,12,16,,,,,,,,,,,,,,,,,,,,,,,,,,,,,,,,,,,,,,,,,42.99344533999101,43.99322230002144,43.99322230002144,None,3.604166666666667,1.1238031000248156,43.99322230002144,None,,,,,,,,,,,,,,,,,,,,,,,,,,,,,,,,,,,,,,,,,,,,,t,001,2021_Jan_09_0116,piloto1,2020.2.5,59.860489154847656,
1500,0.02,imagenes/Leche-de-almendras.jpg,0.3886559457994673,None,0,0,0,1,0,13,13,9,,,,,,,,,,,,,,,,,,,,,,,,,,,,,,,,,,,,,,,,,44.22717728000134,45.22684630000731,45.22684630000731,None,3.604166666666667,1.0069586000172421,45.22684630000731,None,,,,,,,,,,,,,,,,,,,,,,,,,,,,,,,,,,,,,,,,,,,,,t,001,2021_Jan_09_0116,piloto1,2020.2.5,59.860489154847656,
1500,0.02,imagenes/Papas picantes.jpg,0.524978898672612,None,0,0,0,1,0,14,14,27,,,,,,,,,,,,,,,,,,,,,,,,,,,,,,,,,,,,,,,,,45.26007117997506,46.26027249998879,46.243317599990405,None,3.604166666666667,1.2141642000060529,46.243317599990405,None,,,,,,,,,,,,,,,,,,,,,,,,,,,,,,,,,,,,,,,,,,,,,t,001,2021_Jan_09_0116,piloto1,2020.2.5,59.860489154847656,
1500,0.02,imagenes/Coliflor.jpg,0.3640740491088985,None,0,0,0,1,0,15,15,24,,,,,,,,,,,,,,,,,,,,,,,,,,,,,,,,,,,,,,,,,46.49307797997608,47.49290090001887,47.49290090001887,None,3.604166666666667,1.0876944999909028,47.49290090001887,None,,,,,,,,,,,,,,,,,,,,,,,,,,,,,,,,,,,,,,,,,,,,,t,001,2021_Jan_09_0116,piloto1,2020.2.5,59.860489154847656,
1500,0.02,imagenes/Croissant.jpg,0.5824748589948932,None,0,0,0,1,0,16,16,5,,,,,,,,,,,,,,,,,,,,,,,,,,,,,,,,,,,,,,,,,47.62640646001091,48.62644510000246,48.62644510000246,None,3.604166666666667,1.208537200000137,48.62644510000246,None,,,,,,,,,,,,,,,,,,,,,,,,,,,,,,,,,,,,,,,,,,,,,t,001,2021_Jan_09_0116,piloto1,2020.2.5,59.860489154847656,
1500,0.02,imagenes/Kiwi.jpg,0.3929145850942286,None,0,0,0,1,0,17,17,8,,,,,,,,,,,,,,,,,,,,,,,,,,,,,,,,,,,,,,,,,48.85956838002312,49.86014180001803,49.86014180001803,None,3.604166666666667,1.1089428000268526,49.86014180001803,None,,,,,,,,,,,,,,,,,,,,,,,,,,,,,,,,,,,,,,,,,,,,,t,001,2021_Jan_09_0116,piloto1,2020.2.5,59.860489154847656,
1500,0.02,imagenes/Chontaduro.png,0.8693553300418813,None,0,0,0,1,0,18,18,23,,,,,,,,,,,,,,,,,,,,,,,,,,,,,,,,,,,,,,,,,49.993602180009475,50.99286990001565,50.97652209998341,None,3.604166666666667,1.1783960000029765,50.97652209998341,None,,,,,,,,,,,,,,,,,,,,,,,,,,,,,,,,,,,,,,,,,,,,,t,001,2021_Jan_09_0116,piloto1,2020.2.5,59.860489154847656,
1500,0.02,imagenes/Alpinito.jpg,0.7416150880621702,None,0,0,0,1,0,19,19,0,,,,,,,,,,,,,,,,,,,,,,,,,,,,,,,,,,,,,,,,,51.20962336001685,52.21003030001884,52.21003030001884,None,3.604166666666667,1.1551027999958023,52.21003030001884,None,,,,,,,,,,,,,,,,,,,,,,,,,,,,,,,,,,,,,,,,,,,,,t,001,2021_Jan_09_0116,piloto1,2020.2.5,59.860489154847656,
1500,0.02,imagenes/Pepinillos.png,0.0038966441241518046,None,0,0,0,1,0,20,20,28,,,,,,,,,,,,,,,,,,,,,,,,,,,,,,,,,,,,,,,,,52.40954945998965,None,53.39298860001145,None,3.604166666666667,1.2341967999818735,53.39298860001145,None,,,,,,,,,,,,,,,,,,,,,,,,,,,,,,,,,,,,,,,,,,,,,t,001,2021_Jan_09_0116,piloto1,2020.2.5,59.860489154847656,
1500,0.02,imagenes/Pizza.png,0.21192443516553439,None,0,0,0,1,0,21,21,31,,,,,,,,,,,,,,,,,,,,,,,,,,,,,,,,,,,,,,,,,53.65942178000114,54.6598022999824,54.6598022999824,None,3.604166666666667,1.2044126000255346,54.6598022999824,None,,,,,,,,,,,,,,,,,,,,,,,,,,,,,,,,,,,,,,,,,,,,,t,001,2021_Jan_09_0116,piloto1,2020.2.5,59.860489154847656,
1500,0.02,imagenes/Muffin de banano.png,0.9610615059009696,None,0,0,0,1,0,22,22,25,,,,,,,,,,,,,,,,,,,,,,,,,,,,,,,,,,,,,,,,,54.90967655996792,55.90956220001681,55.892676700023,None,3.604166666666667,1.2943263999768533,55.892676700023,None,,,,,,,,,,,,,,,,,,,,,,,,,,,,,,,,,,,,,,,,,,,,,t,001,2021_Jan_09_0116,piloto1,2020.2.5,59.860489154847656,
1500,0.02,imagenes/salchicha hojaldrada.jpg,0.7119773165481526,None,0,0,0,1,0,23,23,35,,,,,,,,,,,,,,,,,,,,,,,,,,,,,,,,,,,,,,,,,56.22634908001055,57.22587269998621,57.22587269998621,None,3.604166666666667,1.2085737999877892,57.22587269998621,None,,,,,,,,,,,,,,,,,,,,,,,,,,,,,,,,,,,,,,,,,,,,,t,001,2021_Jan_09_0116,piloto1,2020.2.5,59.860489154847656,
1500,0.02,imagenes/Rollo de queso.png,0.9201641182756888,None,0,0,0,1,0,24,24,33,,,,,,,,,,,,,,,,,,,,,,,,,,,,,,,,,,,,,,,,,57.4760484599974,58.47611029999098,58.47611029999098,None,3.604166666666667,1.1607348999823444,58.47611029999098,None,,,,,,,,,,,,,,,,,,,,,,,,,,,,,,,,,,,,,,,,,,,,,t,001,2021_Jan_09_0116,piloto1,2020.2.5,59.860489154847656,
1500,0.02,imagenes/Papas-naturales.jpg,0.37590629905521566,None,0,0,0,1,0,25,25,13,,,,,,,,,,,,,,,,,,,,,,,,,,,,,,,,,,,,,,,,,58.659437680005794,59.65916590002598,59.64266960002715,None,3.604166666666667,1.3446942000300623,59.64266960002715,None,,,,,,,,,,,,,,,,,,,,,,,,,,,,,,,,,,,,,,,,,,,,,t,001,2021_Jan_09_0116,piloto1,2020.2.5,59.860489154847656,
1500,0.02,imagenes/Almojabanas.png,0.6725051200713246,None,0,0,0,1,0,26,26,20,,,,,,,,,,,,,,,,,,,,,,,,,,,,,,,,,,,,,,,,,60.042782759992406,61.042492699983995,61.042492699983995,None,3.604166666666667,1.0549143999814987,61.042492699983995,None,,,,,,,,,,,,,,,,,,,,,,,,,,,,,,,,,,,,,,,,,,,,,t,001,2021_Jan_09_0116,piloto1,2020.2.5,59.860489154847656,
1500,0.02,imagenes/Manzana.jpg,0.4048420327008191,None,0,0,0,1,0,27,27,11,,,,,,,,,,,,,,,,,,,,,,,,,,,,,,,,,,,,,,,,,61.14283486001659,62.142955899995286,62.142955899995286,None,3.604166666666667,1.2437048999709077,62.142955899995286,None,,,,,,,,,,,,,,,,,,,,,,,,,,,,,,,,,,,,,,,,,,,,,t,001,2021_Jan_09_0116,piloto1,2020.2.5,59.860489154847656,
1500,0.02,imagenes/Pandebono.png,0.8988574378129985,None,0,0,0,1,0,28,28,26,,,,,,,,,,,,,,,,,,,,,,,,,,,,,,,,,,,,,,,,,62.425781860016286,63.42581500002416,63.42581500002416,None,3.604166666666667,1.2420557999867015,63.42581500002416,None,,,,,,,,,,,,,,,,,,,,,,,,,,,,,,,,,,,,,,,,,,,,,t,001,2021_Jan_09_0116,piloto1,2020.2.5,59.860489154847656,
1500,0.02,imagenes/Papas-limon.jpg,0.5280798509093595,None,0,0,0,1,0,29,29,14,,,,,,,,,,,,,,,,,,,,,,,,,,,,,,,,,,,,,,,,,63.69258957999409,64.6926158000133,64.6926158000133,None,3.604166666666667,1.2105655999621376,64.6926158000133,None,,,,,,,,,,,,,,,,,,,,,,,,,,,,,,,,,,,,,,,,,,,,,t,001,2021_Jan_09_0116,piloto1,2020.2.5,59.860489154847656,
1500,0.02,imagenes/Banano.jpeg,0.2267656716538785,None,0,0,0,1,0,30,30,1,,,,,,,,,,,,,,,,,,,,,,,,,,,,,,,,,,,,,,,,,64.94275176001247,None,65.92553599999519,None,3.604166666666667,1.2675528999534436,65.92553599999519,None,,,,,,,,,,,,,,,,,,,,,,,,,,,,,,,,,,,,,,,,,,,,,t,001,2021_Jan_09_0116,piloto1,2020.2.5,59.860489154847656,
1500,0.02,imagenes/Brownie.jpg,0.2838924074864093,None,0,0,0,1,0,31,31,3,,,,,,,,,,,,,,,,,,,,,,,,,,,,,,,,,,,,,,,,,66.25916243999382,None,67.24247230001492,None,3.604166666666667,1.169766599952709,67.24247230001492,None,,,,,,,,,,,,,,,,,,,,,,,,,,,,,,,,,,,,,,,,,,,,,t,001,2021_Jan_09_0116,piloto1,2020.2.5,59.860489154847656,
1500,0.02,imagenes/Canelazo.png,0.6730479360767814,None,0,0,0,1,0,32,32,22,,,,,,,,,,,,,,,,,,,,,,,,,,,,,,,,,,,,,,,,,67.47558284000843,68.47570459998678,68.47570459998678,None,3.604166666666667,1.2416016000206582,68.47570459998678,None,,,,,,,,,,,,,,,,,,,,,,,,,,,,,,,,,,,,,,,,,,,,,t,001,2021_Jan_09_0116,piloto1,2020.2.5,59.860489154847656,
1500,0.02,imagenes/Pescadito.png,0.7172825011486081,None,0,0,0,1,0,33,33,29,,,,,,,,,,,,,,,,,,,,,,,,,,,,,,,,,,,,,,,,,68.75881595996907,69.75872550002532,69.74239620001754,None,3.604166666666667,1.1643877000315115,69.74239620001754,None,,,,,,,,,,,,,,,,,,,,,,,,,,,,,,,,,,,,,,,,,,,,,t,001,2021_Jan_09_0116,piloto1,2020.2.5,59.860489154847656,
1500,0.02,imagenes/Uvas.jpg,0.4959291644143431,None,0,0,0,1,0,34,34,19,,,,,,,,,,,,,,,,,,,,,,,,,,,,,,,,,,,,,,,,,69.94225588001427,70.94253539998317,70.94253539998317,None,3.604166666666667,1.1380054000183009,70.94253539998317,None,,,,,,,,,,,,,,,,,,,,,,,,,,,,,,,,,,,,,,,,,,,,,t,001,2021_Jan_09_0116,piloto1,2020.2.5,59.860489154847656,
1500,0.02,imagenes/Brocoli.jpg,0.24293074945529525,None,0,0,0,1,0,35,35,21,,,,,,,,,,,,,,,,,,,,,,,,,,,,,,,,,,,,,,,,,71.10872748002294,72.10899969999446,72.09226740000304,None,3.604166666666667,1.278817699989304,72.09226740000304,None,,,,,,,,,,,,,,,,,,,,,,,,,,,,,,,,,,,,,,,,,,,,,t,001,2021_Jan_09_0116,piloto1,2020.2.5,59.860489154847656,
1500,0.02,,,,0,0,0,1,,,,,,,,,,,,,,,,,,,,,,,,,,,,,,,,,,,,,,,,,,,,,,,,,,,,,,,,,,,,,,,,,,,,,,,,,,,,,,,,,,,,,,,,,,,,,,,,,t,001,2021_Jan_09_0116,piloto1,2020.2.5,59.860489154847656,
400,0.02,imagenes/Pescadito.png,0.7172825011486081,None,0,1,1,0,0,0,0,29,,,,,,,,,,,,,,,,,,,,,,,,,,,,,,,,,,,,,,,,,72.42565645999275,73.42531199997757,73.42531199997757,None,3.604166666666667,1.6410641000256874,73.42531199997757,None,,,,,,,,,,,,,,,,,,,,,,,,,,,,,,,,,,,,,,,,,,,,,t,001,2021_Jan_09_0116,piloto1,2020.2.5,59.860489154847656,
400,0.02,imagenes/Pizza.png,0.21192443516553439,None,0,1,1,0,0,1,1,31,,,,,,,,,,,,,,,,,,,,,,,,,,,,,,,,,,,,,,,,,74.10855935997097,None,75.075079799979,None,3.604166666666667,1.36986259999685,75.075079799979,None,,,,,,,,,,,,,,,,,,,,,,,,,,,,,,,,,,,,,,,,,,,,,t,001,2021_Jan_09_0116,piloto1,2020.2.5,59.860489154847656,
400,0.02,imagenes/Alpinito.jpg,0.7416150880621702,None,0,1,1,0,0,2,2,0,,,,,,,,,,,,,,,,,,,,,,,,,,,,,,,,,,,,,,,,,75.50854325998807,76.50876190001145,76.50876190001145,None,3.604166666666667,1.3046707999892533,76.50876190001145,None,,,,,,,,,,,,,,,,,,,,,,,,,,,,,,,,,,,,,,,,,,,,,t,001,2021_Jan_09_0116,piloto1,2020.2.5,59.860489154847656,
400,0.02,imagenes/Popetas.jpg,0.9621625733302204,None,0,1,1,0,0,3,3,16,,,,,,,,,,,,,,,,,,,,,,,,,,,,,,,,,,,,,,,,,76.87503553999704,None,77.85842709999997,None,3.604166666666667,1.2154874000116251,77.85842709999997,None,,,,,,,,,,,,,,,,,,,,,,,,,,,,,,,,,,,,,,,,,,,,,t,001,2021_Jan_09_0116,piloto1,2020.2.5,59.860489154847656,
400,0.02,imagenes/Papas-naturales.jpg,0.37590629905521566,None,0,1,1,0,0,4,4,13,,,,,,,,,,,,,,,,,,,,,,,,,,,,,,,,,,,,,,,,,78.10871228002361,79.10853109997697,79.10853109997697,None,3.604166666666667,1.138515499944333,79.10853109997697,None,,,,,,,,,,,,,,,,,,,,,,,,,,,,,,,,,,,,,,,,,,,,,t,001,2021_Jan_09_0116,piloto1,2020.2.5,59.860489154847656,
400,0.02,imagenes/Coliflor.jpg,0.3640740491088985,None,0,1,1,0,0,5,5,24,,,,,,,,,,,,,,,,,,,,,,,,,,,,,,,,,,,,,,,,,79.29193825996481,None,80.25828970002476,None,3.604166666666667,1.2020212999777868,80.25828970002476,None,,,,,,,,,,,,,,,,,,,,,,,,,,,,,,,,,,,,,,,,,,,,,t,001,2021_Jan_09_0116,piloto1,2020.2.5,59.860489154847656,
400,0.02,imagenes/Pizzetas.png,0.3295951589873042,None,0,1,1,0,0,6,6,32,,,,,,,,,,,,,,,,,,,,,,,,,,,,,,,,,,,,,,,,,80.5253852599999,81.52499479998369,81.52499479998369,None,3.604166666666667,1.2394505999982357,81.52499479998369,None,,,,,,,,,,,,,,,,,,,,,,,,,,,,,,,,,,,,,,,,,,,,,t,001,2021_Jan_09_0116,piloto1,2020.2.5,59.860489154847656,
400,0.02,imagenes/Rosquitas (1).jpg,0.024090340010977873,None,0,1,1,0,0,7,7,17,,,,,,,,,,,,,,,,,,,,,,,,,,,,,,,,,,,,,,,,,81.80820675997529,82.80826429999433,82.80826429999433,None,3.604166666666667,1.124226899992209,82.80826429999433,None,,,,,,,,,,,,,,,,,,,,,,,,,,,,,,,,,,,,,,,,,,,,,t,001,2021_Jan_09_0116,piloto1,2020.2.5,59.860489154847656,
400,0.02,imagenes/Leche-de-almendras.jpg,0.3886559457994673,None,0,1,1,0,0,8,8,9,,,,,,,,,,,,,,,,,,,,,,,,,,,,,,,,,,,,,,,,,83.04169767996063,84.0418169000186,84.0418169000186,None,3.604166666666667,1.1089642000151798,84.0418169000186,None,,,,,,,,,,,,,,,,,,,,,,,,,,,,,,,,,,,,,,,,,,,,,t,001,2021_Jan_09_0116,piloto1,2020.2.5,59.860489154847656,
400,0.02,imagenes/Rollo de queso.png,0.9201641182756888,None,0,1,1,0,0,9,9,33,,,,,,,,,,,,,,,,,,,,,,,,,,,,,,,,,,,,,,,,,84.19179985998198,85.19176299998071,85.19176299998071,None,3.604166666666667,1.1774674999760464,85.19176299998071,None,,,,,,,,,,,,,,,,,,,,,,,,,,,,,,,,,,,,,,,,,,,,,t,001,2021_Jan_09_0116,piloto1,2020.2.5,59.860489154847656,
400,0.02,imagenes/Pepinillos.png,0.0038966441241518046,None,0,1,1,0,0,10,10,28,,,,,,,,,,,,,,,,,,,,,,,,,,,,,,,,,,,,,,,,,85.40797985997051,86.40798159997212,86.40798159997212,None,3.604166666666667,1.1904237999697216,86.40798159997212,None,,,,,,,,,,,,,,,,,,,,,,,,,,,,,,,,,,,,,,,,,,,,,t,001,2021_Jan_09_0116,piloto1,2020.2.5,59.860489154847656,
400,0.02,imagenes/Papas-limon.jpg,0.5280798509093595,None,0,1,1,0,0,11,11,14,,,,,,,,,,,,,,,,,,,,,,,,,,,,,,,,,,,,,,,,,86.62498317999416,None,87.60796280001523,None,3.604166666666667,1.1947605999885127,87.60796280001523,None,,,,,,,,,,,,,,,,,,,,,,,,,,,,,,,,,,,,,,,,,,,,,t,001,2021_Jan_09_0116,piloto1,2020.2.5,59.860489154847656,
400,0.02,imagenes/Rollos de canela.png,0.2610974409574519,None,0,1,1,0,0,12,12,34,,,,,,,,,,,,,,,,,,,,,,,,,,,,,,,,,,,,,,,,,87.8579106599791,None,88.84147109999321,None,3.604166666666667,1.2681564000085928,88.84147109999321,None,,,,,,,,,,,,,,,,,,,,,,,,,,,,,,,,,,,,,,,,,,,,,t,001,2021_Jan_09_0116,piloto1,2020.2.5,59.860489154847656,
400,0.02,imagenes/Banano.jpeg,0.2267656716538785,None,0,1,1,0,0,13,13,1,,,,,,,,,,,,,,,,,,,,,,,,,,,,,,,,,,,,,,,,,89.15793655999005,None,90.1422378999996,None,3.604166666666667,1.103627400007099,90.1422378999996,None,,,,,,,,,,,,,,,,,,,,,,,,,,,,,,,,,,,,,,,,,,,,,t,001,2021_Jan_09_0116,piloto1,2020.2.5,59.860489154847656,
400,0.02,imagenes/Uvas.jpg,0.4959291644143431,None,0,1,1,0,0,14,14,19,,,,,,,,,,,,,,,,,,,,,,,,,,,,,,,,,,,,,,,,,90.27453587998752,91.27441090001957,91.27441090001957,None,3.604166666666667,1.2215975999715738,91.27441090001957,None,,,,,,,,,,,,,,,,,,,,,,,,,,,,,,,,,,,,,,,,,,,,,t,001,2021_Jan_09_0116,piloto1,2020.2.5,59.860489154847656,
400,0.02,imagenes/Muffin de banano.png,0.9610615059009696,None,0,1,1,0,0,15,15,25,,,,,,,,,,,,,,,,,,,,,,,,,,,,,,,,,,,,,,,,,91.54132586001651,None,92.52465239999583,None,3.604166666666667,1.1946353999665007,92.52465239999583,None,,,,,,,,,,,,,,,,,,,,,,,,,,,,,,,,,,,,,,,,,,,,,t,001,2021_Jan_09_0116,piloto1,2020.2.5,59.860489154847656,
400,0.02,imagenes/Brownie.jpg,0.2838924074864093,None,0,1,1,0,0,16,16,3,,,,,,,,,,,,,,,,,,,,,,,,,,,,,,,,,,,,,,,,,92.7748610599665,93.77426410000771,93.75769800000126,None,3.604166666666667,1.2614213000051677,93.75769800000126,None,,,,,,,,,,,,,,,,,,,,,,,,,,,,,,,,,,,,,,,,,,,,,t,001,2021_Jan_09_0116,piloto1,2020.2.5,59.860489154847656,
400,0.02,imagenes/Chontaduro.png,0.8693553300418813,None,0,1,1,0,0,17,17,23,,,,,,,,,,,,,,,,,,,,,,,,,,,,,,,,,,,,,,,,,94.05809567999677,95.05763330002083,95.05763330002083,None,3.604166666666667,1.2704352000146173,95.05763330002083,None,,,,,,,,,,,,,,,,,,,,,,,,,,,,,,,,,,,,,,,,,,,,,t,001,2021_Jan_09_0116,piloto1,2020.2.5,59.860489154847656,
400,0.02,imagenes/Papas picantes.jpg,0.524978898672612,None,0,1,1,0,0,18,18,27,,,,,,,,,,,,,,,,,,,,,,,,,,,,,,,,,,,,,,,,,95.35802817999502,96.35758640000131,96.3412520000129,None,3.604166666666667,1.2472412000061013,96.3412520000129,None,,,,,,,,,,,,,,,,,,,,,,,,,,,,,,,,,,,,,,,,,,,,,t,001,2021_Jan_09_0116,piloto1,2020.2.5,59.860489154847656,
400,0.02,imagenes/Mango.jpeg,0.4341155418941499,None,0,1,1,0,0,19,19,10,,,,,,,,,,,,,,,,,,,,,,,,,,,,,,,,,,,,,,,,,96.64097245997982,None,97.62450460001128,None,3.604166666666667,1.3331966000259854,97.62450460001128,None,,,,,,,,,,,,,,,,,,,,,,,,,,,,,,,,,,,,,,,,,,,,,t,001,2021_Jan_09_0116,piloto1,2020.2.5,59.860489154847656,
400,0.02,imagenes/Nutella (1).jpg,0.8826531883338111,None,0,1,1,0,0,20,20,12,,,,,,,,,,,,,,,,,,,,,,,,,,,,,,,,,,,,,,,,,97.9907708799874,98.99108890001662,98.99108890001662,None,3.604166666666667,1.3888743999996223,98.99108890001662,None,,,,,,,,,,,,,,,,,,,,,,,,,,,,,,,,,,,,,,,,,,,,,t,001,2021_Jan_09_0116,piloto1,2020.2.5,59.860489154847656,
400,0.02,imagenes/Brocoli.jpg,0.24293074945529525,None,0,1,1,0,0,21,21,21,,,,,,,,,,,,,,,,,,,,,,,,,,,,,,,,,,,,,,,,,99.40775668001152,100.40738160000183,100.40738160000183,None,3.604166666666667,1.1759711999911815,100.40738160000183,None,,,,,,,,,,,,,,,,,,,,,,,,,,,,,,,,,,,,,,,,,,,,,t,001,2021_Jan_09_0116,piloto1,2020.2.5,59.860489154847656,
400,0.02,imagenes/Galletas Tosh.jpg,0.9129693753280027,None,0,1,1,0,0,22,22,6,,,,,,,,,,,,,,,,,,,,,,,,,,,,,,,,,,,,,,,,,100.62419756001327,101.62409040000057,101.62409040000057,None,3.604166666666667,1.142702899989672,101.62409040000057,None,,,,,,,,,,,,,,,,,,,,,,,,,,,,,,,,,,,,,,,,,,,,,t,001,2021_Jan_09_0116,piloto1,2020.2.5,59.860489154847656,
400,0.02,imagenes/Papas-pollo.jpg,0.08373485417902837,None,0,1,1,0,0,23,23,15,,,,,,,,,,,,,,,,,,,,,,,,,,,,,,,,,,,,,,,,,101.79057088002446,102.79095649998635,102.79095649998635,None,3.604166666666667,1.2910186999943107,102.79095649998635,None,,,,,,,,,,,,,,,,,,,,,,,,,,,,,,,,,,,,,,,,,,,,,t,001,2021_Jan_09_0116,piloto1,2020.2.5,59.860489154847656,
400,0.02,imagenes/Almojabanas.png,0.6725051200713246,None,0,1,1,0,0,24,24,20,,,,,,,,,,,,,,,,,,,,,,,,,,,,,,,,,,,,,,,,,103.1242735600099,104.12411859998247,104.12411859998247,None,3.604166666666667,1.2070657000294887,104.12411859998247,None,,,,,,,,,,,,,,,,,,,,,,,,,,,,,,,,,,,,,,,,,,,,,t,001,2021_Jan_09_0116,piloto1,2020.2.5,59.860489154847656,
400,0.02,imagenes/Yogurt-alpina.jpg,0.5445152936222175,None,0,1,1,0,0,25,25,18,,,,,,,,,,,,,,,,,,,,,,,,,,,,,,,,,,,,,,,,,104.37398175999988,None,105.34077279997291,None,3.604166666666667,1.3528362999786623,105.34077279997291,None,,,,,,,,,,,,,,,,,,,,,,,,,,,,,,,,,,,,,,,,,,,,,t,001,2021_Jan_09_0116,piloto1,2020.2.5,59.860489154847656,
400,0.02,imagenes/Kiwi.jpg,0.3929145850942286,None,0,1,1,0,0,26,26,8,,,,,,,,,,,,,,,,,,,,,,,,,,,,,,,,,,,,,,,,,105.74037028002203,None,106.74077889998443,None,3.604166666666667,1.2602529999567196,106.74077889998443,None,,,,,,,,,,,,,,,,,,,,,,,,,,,,,,,,,,,,,,,,,,,,,t,001,2021_Jan_09_0116,piloto1,2020.2.5,59.860489154847656,
400,0.02,imagenes/pistachos.jpg,0.7450869742741464,None,0,1,1,0,0,27,27,30,,,,,,,,,,,,,,,,,,,,,,,,,,,,,,,,,,,,,,,,,107.024417180015,None,108.00701350002782,None,3.604166666666667,1.1816087000188418,108.00701350002782,None,,,,,,,,,,,,,,,,,,,,,,,,,,,,,,,,,,,,,,,,,,,,,t,001,2021_Jan_09_0116,piloto1,2020.2.5,59.860489154847656,
400,0.02,imagenes/Pandebono.png,0.8988574378129985,None,0,1,1,0,0,28,28,26,,,,,,,,,,,,,,,,,,,,,,,,,,,,,,,,,,,,,,,,,108.24039186001755,None,109.22382399998605,None,3.604166666666667,1.314952299988363,109.22382399998605,None,,,,,,,,,,,,,,,,,,,,,,,,,,,,,,,,,,,,,,,,,,,,,t,001,2021_Jan_09_0116,piloto1,2020.2.5,59.860489154847656,
400,0.02,imagenes/Chocoramo.jfif.jpg,0.7425528559884101,None,0,1,1,0,0,29,29,4,,,,,,,,,,,,,,,,,,,,,,,,,,,,,,,,,,,,,,,,,109.60712113996851,110.60702639998635,110.59076069999719,None,3.604166666666667,1.181942800001707,110.59076069999719,None,,,,,,,,,,,,,,,,,,,,,,,,,,,,,,,,,,,,,,,,,,,,,t,001,2021_Jan_09_0116,piloto1,2020.2.5,59.860489154847656,
400,0.02,imagenes/Galletas-festival.jpg,0.11306074364032936,None,0,1,1,0,0,30,30,7,,,,,,,,,,,,,,,,,,,,,,,,,,,,,,,,,,,,,,,,,110.8238216600148,111.82373030000599,111.82373030000599,None,3.604166666666667,1.291661600000225,111.82373030000599,None,,,,,,,,,,,,,,,,,,,,,,,,,,,,,,,,,,,,,,,,,,,,,t,001,2021_Jan_09_0116,piloto1,2020.2.5,59.860489154847656,
400,0.02,imagenes/Manzana.jpg,0.4048420327008191,None,0,1,1,0,0,31,31,11,,,,,,,,,,,,,,,,,,,,,,,,,,,,,,,,,,,,,,,,,112.17369773998507,None,113.15699450002285,None,3.604166666666667,1.249685299990233,113.15699450002285,None,,,,,,,,,,,,,,,,,,,,,,,,,,,,,,,,,,,,,,,,,,,,,t,001,2021_Jan_09_0116,piloto1,2020.2.5,59.860489154847656,
400,0.02,imagenes/Canelazo.png,0.6730479360767814,None,0,1,1,0,0,32,32,22,,,,,,,,,,,,,,,,,,,,,,,,,,,,,,,,,,,,,,,,,113.47347433996038,None,114.4733243000228,None,3.604166666666667,1.237371900002472,114.4733243000228,None,,,,,,,,,,,,,,,,,,,,,,,,,,,,,,,,,,,,,,,,,,,,,t,001,2021_Jan_09_0116,piloto1,2020.2.5,59.860489154847656,
400,0.02,imagenes/salchicha hojaldrada.jpg,0.7119773165481526,None,0,1,1,0,0,33,33,35,,,,,,,,,,,,,,,,,,,,,,,,,,,,,,,,,,,,,,,,,114.74001367998426,115.74049970001215,115.72349960001884,None,3.604166666666667,1.2468974000075832,115.72349960001884,None,,,,,,,,,,,,,,,,,,,,,,,,,,,,,,,,,,,,,,,,,,,,,t,001,2021_Jan_09_0116,piloto1,2020.2.5,59.860489154847656,
400,0.02,imagenes/bon-bon-bun.jpg,0.7417452724056987,None,0,1,1,0,0,34,34,2,,,,,,,,,,,,,,,,,,,,,,,,,,,,,,,,,,,,,,,,,116.02373795997119,117.02350770001067,117.00682309997501,None,3.604166666666667,1.31149600003846,117.00682309997501,None,,,,,,,,,,,,,,,,,,,,,,,,,,,,,,,,,,,,,,,,,,,,,t,001,2021_Jan_09_0116,piloto1,2020.2.5,59.860489154847656,
400,0.02,imagenes/Croissant.jpg,0.5824748589948932,None,0,1,1,0,0,35,35,5,,,,,,,,,,,,,,,,,,,,,,,,,,,,,,,,,,,,,,,,,117.37363856000593,118.37336159998085,118.37336159998085,None,3.604166666666667,1.2089600999606773,118.37336159998085,None,,,,,,,,,,,,,,,,,,,,,,,,,,,,,,,,,,,,,,,,,,,,,t,001,2021_Jan_09_0116,piloto1,2020.2.5,59.860489154847656,
400,0.02,,,,0,1,1,0,,,,,,,,,,,,,,,,,,,,,,,,,,,,,,,,,,,,,,,,,,,,,,,,,,,,,,,,,,,,,,,,,,,,,,,,,,,,,,,,,,,,,,,,,,,,,,,,,t,001,2021_Jan_09_0116,piloto1,2020.2.5,59.860489154847656,
1000,0.02,imagenes/Rollo de queso.png,0.9201641182756888,None,0,2,2,2,0,0,0,33,,,,,,,,,,,,,,,,,,,,,,,,,,,,,,,,,,,,,,,,,118.62323175999336,None,119.62339700001758,None,3.604166666666667,1.2894122000434436,119.62339700001758,None,,,,,,,,,,,,,,,,,,,,,,,,,,,,,,,,,,,,,,,,,,,,,t,001,2021_Jan_09_0116,piloto1,2020.2.5,59.860489154847656,
1000,0.02,imagenes/Papas picantes.jpg,0.524978898672612,None,0,2,2,2,0,1,1,27,,,,,,,,,,,,,,,,,,,,,,,,,,,,,,,,,,,,,,,,,119.9396511799714,120.9401371999993,120.92311859998154,None,3.604166666666667,1.094688400044106,120.92311859998154,None,,,,,,,,,,,,,,,,,,,,,,,,,,,,,,,,,,,,,,,,,,,,,t,001,2021_Jan_09_0116,piloto1,2020.2.5,59.860489154847656,
1000,0.02,imagenes/Papas-pollo.jpg,0.08373485417902837,None,0,2,2,2,0,2,2,15,,,,,,,,,,,,,,,,,,,,,,,,,,,,,,,,,,,,,,,,,121.05666997996741,122.05639350001002,122.05639350001002,None,3.604166666666667,1.3413193000014871,122.05639350001002,None,,,,,,,,,,,,,,,,,,,,,,,,,,,,,,,,,,,,,,,,,,,,,t,001,2021_Jan_09_0116,piloto1,2020.2.5,59.860489154847656,
1000,0.02,imagenes/Croissant.jpg,0.5824748589948932,None,0,2,2,2,0,3,3,5,,,,,,,,,,,,,,,,,,,,,,,,,,,,,,,,,,,,,,,,,122.44007855997188,None,123.42306310002459,None,3.604166666666667,1.2471473999903537,123.42306310002459,None,,,,,,,,,,,,,,,,,,,,,,,,,,,,,,,,,,,,,,,,,,,,,t,001,2021_Jan_09_0116,piloto1,2020.2.5,59.860489154847656,
1000,0.02,imagenes/Brocoli.jpg,0.24293074945529525,None,0,2,2,2,0,4,4,21,,,,,,,,,,,,,,,,,,,,,,,,,,,,,,,,,,,,,,,,,123.70611697997083,None,124.68998590001138,None,3.604166666666667,1.346917700022459,124.68998590001138,None,,,,,,,,,,,,,,,,,,,,,,,,,,,,,,,,,,,,,,,,,,,,,t,001,2021_Jan_09_0116,piloto1,2020.2.5,59.860489154847656,
1000,0.02,imagenes/Muffin de banano.png,0.9610615059009696,None,0,2,2,2,0,5,5,25,,,,,,,,,,,,,,,,,,,,,,,,,,,,,,,,,,,,,,,,,125.10637834001682,126.10620500001824,126.10620500001824,None,3.604166666666667,1.208536499994807,126.10620500001824,None,,,,,,,,,,,,,,,,,,,,,,,,,,,,,,,,,,,,,,,,,,,,,t,001,2021_Jan_09_0116,piloto1,2020.2.5,59.860489154847656,
1000,0.02,imagenes/Pescadito.png,0.7172825011486081,None,0,2,2,2,0,6,6,29,,,,,,,,,,,,,,,,,,,,,,,,,,,,,,,,,,,,,,,,,126.35621585999615,127.35633430001326,127.33976130001247,None,3.604166666666667,1.199465199955739,127.33976130001247,None,,,,,,,,,,,,,,,,,,,,,,,,,,,,,,,,,,,,,,,,,,,,,t,001,2021_Jan_09_0116,piloto1,2020.2.5,59.860489154847656,
1000,0.02,imagenes/Manzana.jpg,0.4048420327008191,None,0,2,2,2,0,7,7,11,,,,,,,,,,,,,,,,,,,,,,,,,,,,,,,,,,,,,,,,,127.58992776001105,None,128.57280540000647,None,3.604166666666667,1.3500293999677524,128.57280540000647,None,,,,,,,,,,,,,,,,,,,,,,,,,,,,,,,,,,,,,,,,,,,,,t,001,2021_Jan_09_0116,piloto1,2020.2.5,59.860489154847656,
1000,0.02,imagenes/Uvas.jpg,0.4959291644143431,None,0,2,2,2,0,8,8,19,,,,,,,,,,,,,,,,,,,,,,,,,,,,,,,,,,,,,,,,,128.97315286000958,None,129.95608500001254,None,3.604166666666667,1.4690986999776214,129.95608500001254,None,,,,,,,,,,,,,,,,,,,,,,,,,,,,,,,,,,,,,,,,,,,,,t,001,2021_Jan_09_0116,piloto1,2020.2.5,59.860489154847656,
1000,0.02,imagenes/Rollos de canela.png,0.2610974409574519,None,0,2,2,2,0,9,9,34,,,,,,,,,,,,,,,,,,,,,,,,,,,,,,,,,,,,,,,,,130.47272165998584,None,131.45585730002495,None,3.604166666666667,1.5678493000450544,131.45585730002495,None,,,,,,,,,,,,,,,,,,,,,,,,,,,,,,,,,,,,,,,,,,,,,t,001,2021_Jan_09_0116,piloto1,2020.2.5,59.860489154847656,
1000,0.02,imagenes/Chocoramo.jfif.jpg,0.7425528559884101,None,0,2,2,2,0,10,10,4,,,,,,,,,,,,,,,,,,,,,,,,,,,,,,,,,,,,,,,,,132.07307605998358,133.07234880002216,133.07234880002216,None,3.604166666666667,1.2389391000033356,133.07234880002216,None,,,,,,,,,,,,,,,,,,,,,,,,,,,,,,,,,,,,,,,,,,,,,t,001,2021_Jan_09_0116,piloto1,2020.2.5,59.860489154847656,
1000,0.02,imagenes/Rosquitas (1).jpg,0.024090340010977873,None,0,2,2,2,0,11,11,17,,,,,,,,,,,,,,,,,,,,,,,,,,,,,,,,,,,,,,,,,133.35615195997525,None,134.34032720001414,None,3.604166666666667,1.3599217000300996,134.34032720001414,None,,,,,,,,,,,,,,,,,,,,,,,,,,,,,,,,,,,,,,,,,,,,,t,001,2021_Jan_09_0116,piloto1,2020.2.5,59.860489154847656,
1000,0.02,imagenes/Papas-naturales.jpg,0.37590629905521566,None,0,2,2,2,0,12,12,13,,,,,,,,,,,,,,,,,,,,,,,,,,,,,,,,,,,,,,,,,134.73953708002227,None,135.7396012999816,None,3.604166666666667,1.4263309999951161,135.7396012999816,None,,,,,,,,,,,,,,,,,,,,,,,,,,,,,,,,,,,,,,,,,,,,,t,001,2021_Jan_09_0116,piloto1,2020.2.5,59.860489154847656,
1000,0.02,imagenes/Pizza.png,0.21192443516553439,None,0,2,2,2,0,13,13,31,,,,,,,,,,,,,,,,,,,,,,,,,,,,,,,,,,,,,,,,,136.18884817996877,137.18936219997704,137.18936219997704,None,3.604166666666667,1.377220100024715,137.18936219997704,None,,,,,,,,,,,,,,,,,,,,,,,,,,,,,,,,,,,,,,,,,,,,,t,001,2021_Jan_09_0116,piloto1,2020.2.5,59.860489154847656,
1000,0.02,imagenes/Brownie.jpg,0.2838924074864093,None,0,2,2,2,0,14,14,3,,,,,,,,,,,,,,,,,,,,,,,,,,,,,,,,,,,,,,,,,137.60569485998712,138.60584949998884,138.60584949998884,None,3.604166666666667,1.2535627000033855,138.60584949998884,None,,,,,,,,,,,,,,,,,,,,,,,,,,,,,,,,,,,,,,,,,,,,,t,001,2021_Jan_09_0116,piloto1,2020.2.5,59.860489154847656,
1000,0.02,imagenes/Nutella (1).jpg,0.8826531883338111,None,0,2,2,2,0,15,15,12,,,,,,,,,,,,,,,,,,,,,,,,,,,,,,,,,,,,,,,,,138.88930458002142,139.88934130000416,139.88934130000416,None,3.604166666666667,1.3722354000201449,139.88934130000416,None,,,,,,,,,,,,,,,,,,,,,,,,,,,,,,,,,,,,,,,,,,,,,t,001,2021_Jan_09_0116,piloto1,2020.2.5,59.860489154847656,
1000,0.02,imagenes/Pandebono.png,0.8988574378129985,None,0,2,2,2,0,16,16,26,,,,,,,,,,,,,,,,,,,,,,,,,,,,,,,,,,,,,,,,,140.30558906000806,None,141.2891610999941,None,3.604166666666667,1.4155117000336759,141.2891610999941,None,,,,,,,,,,,,,,,,,,,,,,,,,,,,,,,,,,,,,,,,,,,,,t,001,2021_Jan_09_0116,piloto1,2020.2.5,59.860489154847656,
1000,0.02,imagenes/Pizzetas.png,0.3295951589873042,None,0,2,2,2,0,17,17,32,,,,,,,,,,,,,,,,,,,,,,,,,,,,,,,,,,,,,,,,,141.7557996599935,None,142.73877599998377,None,3.604166666666667,1.2163670000154525,142.73877599998377,None,,,,,,,,,,,,,,,,,,,,,,,,,,,,,,,,,,,,,,,,,,,,,t,001,2021_Jan_09_0116,piloto1,2020.2.5,59.860489154847656,
1000,0.02,imagenes/Popetas.jpg,0.9621625733302204,None,0,2,2,2,0,18,18,16,,,,,,,,,,,,,,,,,,,,,,,,,,,,,,,,,,,,,,,,,143.0222154399671,144.02232719998574,144.02232719998574,None,3.604166666666667,1.2932551000267267,144.02232719998574,None,,,,,,,,,,,,,,,,,,,,,,,,,,,,,,,,,,,,,,,,,,,,,t,001,2021_Jan_09_0116,piloto1,2020.2.5,59.860489154847656,
1000,0.02,imagenes/Kiwi.jpg,0.3929145850942286,None,0,2,2,2,0,19,19,8,,,,,,,,,,,,,,,,,,,,,,,,,,,,,,,,,,,,,,,,,144.3390627799963,145.33857590000844,145.33857590000844,None,3.604166666666667,1.4096275999909267,145.33857590000844,None,,,,,,,,,,,,,,,,,,,,,,,,,,,,,,,,,,,,,,,,,,,,,t,001,2021_Jan_09_0116,piloto1,2020.2.5,59.860489154847656,
1000,0.02,imagenes/Almojabanas.png,0.6725051200713246,None,0,2,2,2,0,20,20,20,,,,,,,,,,,,,,,,,,,,,,,,,,,,,,,,,,,,,,,,,145.8056543399871,None,146.7889559000032,None,3.604166666666667,1.3836440000450239,146.7889559000032,None,,,,,,,,,,,,,,,,,,,,,,,,,,,,,,,,,,,,,,,,,,,,,t,001,2021_Jan_09_0116,piloto1,2020.2.5,59.860489154847656,
1000,0.02,imagenes/Alpinito.jpg,0.7416150880621702,None,0,2,2,2,0,21,21,0,,,,,,,,,,,,,,,,,,,,,,,,,,,,,,,,,,,,,,,,,147.2222674600198,148.22180749999825,148.22180749999825,None,3.604166666666667,1.3224655999802053,148.22180749999825,None,,,,,,,,,,,,,,,,,,,,,,,,,,,,,,,,,,,,,,,,,,,,,t,001,2021_Jan_09_0116,piloto1,2020.2.5,59.860489154847656,
1000,0.02,imagenes/Papas-limon.jpg,0.5280798509093595,None,0,2,2,2,0,22,22,14,,,,,,,,,,,,,,,,,,,,,,,,,,,,,,,,,,,,,,,,,148.57195327998488,149.57204980001552,149.57204980001552,None,3.604166666666667,1.1718551000230946,149.57204980001552,None,,,,,,,,,,,,,,,,,,,,,,,,,,,,,,,,,,,,,,,,,,,,,t,001,2021_Jan_09_0116,piloto1,2020.2.5,59.860489154847656,
1000,0.02,imagenes/Galletas Tosh.jpg,0.9129693753280027,None,0,2,2,2,0,23,23,6,,,,,,,,,,,,,,,,,,,,,,,,,,,,,,,,,,,,,,,,,149.7884672600194,None,150.7887986000278,None,3.604166666666667,1.425659300002735,150.7887986000278,None,,,,,,,,,,,,,,,,,,,,,,,,,,,,,,,,,,,,,,,,,,,,,t,001,2021_Jan_09_0116,piloto1,2020.2.5,59.860489154847656,
1000,0.02,imagenes/Galletas-festival.jpg,0.11306074364032936,None,0,2,2,2,0,24,24,7,,,,,,,,,,,,,,,,,,,,,,,,,,,,,,,,,,,,,,,,,151.25526445999276,152.2551463000127,152.23839700000826,None,3.604166666666667,1.3801070000045002,152.23839700000826,None,,,,,,,,,,,,,,,,,,,,,,,,,,,,,,,,,,,,,,,,,,,,,t,001,2021_Jan_09_0116,piloto1,2020.2.5,59.860489154847656,
1000,0.02,imagenes/Yogurt-alpina.jpg,0.5445152936222175,None,0,2,2,2,0,25,25,18,,,,,,,,,,,,,,,,,,,,,,,,,,,,,,,,,,,,,,,,,152.65491697998368,153.65513839997584,153.65513839997584,None,3.604166666666667,1.3925887000514194,153.65513839997584,None,,,,,,,,,,,,,,,,,,,,,,,,,,,,,,,,,,,,,,,,,,,,,t,001,2021_Jan_09_0116,piloto1,2020.2.5,59.860489154847656,
1000,0.02,imagenes/Canelazo.png,0.6730479360767814,None,0,2,2,2,0,26,26,22,,,,,,,,,,,,,,,,,,,,,,,,,,,,,,,,,,,,,,,,,154.1051121399796,155.10490939999,155.08849230001215,None,3.604166666666667,1.3982339999638498,155.08849230001215,None,,,,,,,,,,,,,,,,,,,,,,,,,,,,,,,,,,,,,,,,,,,,,t,001,2021_Jan_09_0116,piloto1,2020.2.5,59.860489154847656,
1000,0.02,imagenes/Mango.jpeg,0.4341155418941499,None,0,2,2,2,0,27,27,10,,,,,,,,,,,,,,,,,,,,,,,,,,,,,,,,,,,,,,,,,155.53834815998562,156.53814100002637,156.5218589999713,None,3.604166666666667,1.633189800020773,156.5218589999713,None,,,,,,,,,,,,,,,,,,,,,,,,,,,,,,,,,,,,,,,,,,,,,t,001,2021_Jan_09_0116,piloto1,2020.2.5,59.860489154847656,
1000,0.02,imagenes/pistachos.jpg,0.7450869742741464,None,0,2,2,2,0,28,28,30,,,,,,,,,,,,,,,,,,,,,,,,,,,,,,,,,,,,,,,,,157.18839167998522,None,158.17161259998102,None,3.604166666666667,1.296859800000675,158.17161259998102,None,,,,,,,,,,,,,,,,,,,,,,,,,,,,,,,,,,,,,,,,,,,,,t,001,2021_Jan_09_0116,piloto1,2020.2.5,59.860489154847656,
1000,0.02,imagenes/Chontaduro.png,0.8693553300418813,None,0,2,2,2,0,29,29,23,,,,,,,,,,,,,,,,,,,,,,,,,,,,,,,,,,,,,,,,,158.50515998000628,None,159.50487010000506,None,3.604166666666667,1.4913130000350066,159.50487010000506,None,,,,,,,,,,,,,,,,,,,,,,,,,,,,,,,,,,,,,,,,,,,,,t,001,2021_Jan_09_0116,piloto1,2020.2.5,59.860489154847656,
1000,0.02,imagenes/Pepinillos.png,0.0038966441241518046,None,0,2,2,2,0,30,30,28,,,,,,,,,,,,,,,,,,,,,,,,,,,,,,,,,,,,,,,,,160.03798376000486,161.03830100002233,161.02177099999972,None,3.604166666666667,1.4615752000245266,161.02177099999972,None,,,,,,,,,,,,,,,,,,,,,,,,,,,,,,,,,,,,,,,,,,,,,t,001,2021_Jan_09_0116,piloto1,2020.2.5,59.860489154847656,
1000,0.02,imagenes/bon-bon-bun.jpg,0.7417452724056987,None,0,2,2,2,0,31,31,2,,,,,,,,,,,,,,,,,,,,,,,,,,,,,,,,,,,,,,,,,161.53765105997445,None,162.52133600000525,None,3.604166666666667,1.485092099988833,162.52133600000525,None,,,,,,,,,,,,,,,,,,,,,,,,,,,,,,,,,,,,,,,,,,,,,t,001,2021_Jan_09_0116,piloto1,2020.2.5,59.860489154847656,
1000,0.02,imagenes/Coliflor.jpg,0.3640740491088985,None,0,2,2,2,0,32,32,24,,,,,,,,,,,,,,,,,,,,,,,,,,,,,,,,,,,,,,,,,163.0377521799819,164.0377545999945,164.0377545999945,None,3.604166666666667,1.4041403000010177,164.0377545999945,None,,,,,,,,,,,,,,,,,,,,,,,,,,,,,,,,,,,,,,,,,,,,,t,001,2021_Jan_09_0116,piloto1,2020.2.5,59.860489154847656,
1000,0.02,imagenes/salchicha hojaldrada.jpg,0.7119773165481526,None,0,2,2,2,0,33,33,35,,,,,,,,,,,,,,,,,,,,,,,,,,,,,,,,,,,,,,,,,164.47114017998683,None,165.45658280001953,None,3.604166666666667,1.496179400011897,165.45658280001953,None,,,,,,,,,,,,,,,,,,,,,,,,,,,,,,,,,,,,,,,,,,,,,t,001,2021_Jan_09_0116,piloto1,2020.2.5,59.860489154847656,
1000,0.02,imagenes/Banano.jpeg,0.2267656716538785,None,0,2,2,2,0,34,34,1,,,,,,,,,,,,,,,,,,,,,,,,,,,,,,,,,,,,,,,,,166.0048565599718,None,166.98802679998334,None,3.604166666666667,1.2841783000039868,166.98802679998334,None,,,,,,,,,,,,,,,,,,,,,,,,,,,,,,,,,,,,,,,,,,,,,t,001,2021_Jan_09_0116,piloto1,2020.2.5,59.860489154847656,
1000,0.02,imagenes/Leche-de-almendras.jpg,0.3886559457994673,None,0,2,2,2,0,35,35,9,,,,,,,,,,,,,,,,,,,,,,,,,,,,,,,,,,,,,,,,,167.37122689999524,None,168.3564619999961,None,3.604166666666667,1.2629967000102624,168.3564619999961,None,,,,,,,,,,,,,,,,,,,,,,,,,,,,,,,,,,,,,,,,,,,,,t,001,2021_Jan_09_0116,piloto1,2020.2.5,59.860489154847656,
1000,0.02,,,,0,2,2,2,,,,,,,,,,,,,,,,,,,,,,,,,,,,,,,,,,,,,,,,,,,,,,,,,,,,,,,,,,,,,,,,,,,,,,,,,,,,,,,,,,,,,,,,,,,,,,,,,t,001,2021_Jan_09_0116,piloto1,2020.2.5,59.860489154847656,
1000,0.0,imagenes/Brocoli.jpg,0.24293074945529525,None,0,3,3,3,0,0,0,21,,,,,,,,,,,,,,,,,,,,,,,,,,,,,,,,,,,,,,,,,168.67086915997788,None,169.65407480002614,None,3.604166666666667,1.3201791999745183,169.65407480002614,None,,,,,,,,,,,,,,,,,,,,,,,,,,,,,,,,,,,,,,,,,,,,,t,001,2021_Jan_09_0116,piloto1,2020.2.5,59.860489154847656,
1000,0.0,imagenes/Manzana.jpg,0.4048420327008191,None,0,3,3,3,0,1,1,11,,,,,,,,,,,,,,,,,,,,,,,,,,,,,,,,,,,,,,,,,170.03771253998275,171.03761409997242,171.0209307000041,None,3.604166666666667,1.8660318000474945,171.0209307000041,None,,,,,,,,,,,,,,,,,,,,,,,,,,,,,,,,,,,,,,,,,,,,,t,001,2021_Jan_09_0116,piloto1,2020.2.5,59.860489154847656,
1000,0.0,imagenes/Papas-limon.jpg,0.5280798509093595,None,0,3,3,3,0,2,2,14,,,,,,,,,,,,,,,,,,,,,,,,,,,,,,,,,,,,,,,,,171.92077257999335,172.92095850000624,172.92095850000624,None,3.604166666666667,1.3886607999447733,172.92095850000624,None,,,,,,,,,,,,,,,,,,,,,,,,,,,,,,,,,,,,,,,,,,,,,t,001,2021_Jan_09_0116,piloto1,2020.2.5,59.860489154847656,
1000,0.0,imagenes/Croissant.jpg,0.5824748589948932,None,0,3,3,3,0,3,3,5,,,,,,,,,,,,,,,,,,,,,,,,,,,,,,,,,,,,,,,,,173.3545368600171,174.35392580000916,174.35392580000916,None,3.604166666666667,1.355792600021232,174.35392580000916,None,,,,,,,,,,,,,,,,,,,,,,,,,,,,,,,,,,,,,,,,,,,,,t,001,2021_Jan_09_0116,piloto1,2020.2.5,59.860489154847656,
1000,0.0,imagenes/Muffin de banano.png,0.9610615059009696,None,0,3,3,3,0,4,4,25,,,,,,,,,,,,,,,,,,,,,,,,,,,,,,,,,,,,,,,,,174.75481486000353,175.75379280000925,175.75379280000925,None,3.604166666666667,1.675293599953875,175.75379280000925,None,,,,,,,,,,,,,,,,,,,,,,,,,,,,,,,,,,,,,,,,,,,,,t,001,2021_Jan_09_0116,piloto1,2020.2.5,59.860489154847656,
1000,0.0,imagenes/Coliflor.jpg,0.3640740491088985,None,0,3,3,3,0,5,5,24,,,,,,,,,,,,,,,,,,,,,,,,,,,,,,,,,,,,,,,,,176.45432448000065,177.45383479999145,177.45383479999145,None,3.604166666666667,1.8607221999554895,177.45383479999145,None,,,,,,,,,,,,,,,,,,,,,,,,,,,,,,,,,,,,,,,,,,,,,t,001,2021_Jan_09_0116,piloto1,2020.2.5,59.860489154847656,
1000,0.0,imagenes/Pizza.png,0.21192443516553439,None,0,3,3,3,0,6,6,31,,,,,,,,,,,,,,,,,,,,,,,,,,,,,,,,,,,,,,,,,178.33753508000518,179.3372592999949,179.3372592999949,None,3.604166666666667,1.4026004999759607,179.3372592999949,None,,,,,,,,,,,,,,,,,,,,,,,,,,,,,,,,,,,,,,,,,,,,,t,001,2021_Jan_09_0116,piloto1,2020.2.5,59.860489154847656,
1000,0.0,imagenes/Leche-de-almendras.jpg,0.3886559457994673,None,0,3,3,3,0,7,7,9,,,,,,,,,,,,,,,,,,,,,,,,,,,,,,,,,,,,,,,,,179.83740479996777,180.8369058999815,180.82018630002858,None,3.604166666666667,1.1146924999775365,180.82018630002858,None,,,,,,,,,,,,,,,,,,,,,,,,,,,,,,,,,,,,,,,,,,,,,t,001,2021_Jan_09_0116,piloto1,2020.2.5,59.860489154847656,
1000,0.0,imagenes/Canelazo.png,0.6730479360767814,None,0,3,3,3,0,8,8,22,,,,,,,,,,,,,,,,,,,,,,,,,,,,,,,,,,,,,,,,,181.00381294000545,None,181.98692049999954,None,3.604166666666667,1.6325623000157066,181.98692049999954,None,,,,,,,,,,,,,,,,,,,,,,,,,,,,,,,,,,,,,,,,,,,,,t,001,2021_Jan_09_0116,piloto1,2020.2.5,59.860489154847656,
1000,0.0,imagenes/pistachos.jpg,0.7450869742741464,None,0,3,3,3,0,9,9,30,,,,,,,,,,,,,,,,,,,,,,,,,,,,,,,,,,,,,,,,,182.65370747997076,None,183.63688260002527,None,3.604166666666667,1.6806006000260822,183.63688260002527,None,,,,,,,,,,,,,,,,,,,,,,,,,,,,,,,,,,,,,,,,,,,,,t,001,2021_Jan_09_0116,piloto1,2020.2.5,59.860489154847656,
1000,0.0,imagenes/Almojabanas.png,0.6725051200713246,None,0,3,3,3,0,10,10,20,,,,,,,,,,,,,,,,,,,,,,,,,,,,,,,,,,,,,,,,,184.3702560599777,185.3705118999933,185.3705118999933,None,3.604166666666667,1.0559894000180066,185.3705118999933,None,,,,,,,,,,,,,,,,,,,,,,,,,,,,,,,,,,,,,,,,,,,,,t,001,2021_Jan_09_0116,piloto1,2020.2.5,59.860489154847656,
1000,0.0,imagenes/Papas-pollo.jpg,0.08373485417902837,None,0,3,3,3,0,11,11,15,,,,,,,,,,,,,,,,,,,,,,,,,,,,,,,,,,,,,,,,,185.4534032799711,186.45371189998696,186.43672449997393,None,3.604166666666667,1.295606100000441,186.43672449997393,None,,,,,,,,,,,,,,,,,,,,,,,,,,,,,,,,,,,,,,,,,,,,,t,001,2021_Jan_09_0116,piloto1,2020.2.5,59.860489154847656,
1000,0.0,imagenes/Kiwi.jpg,0.3929145850942286,None,0,3,3,3,0,12,12,8,,,,,,,,,,,,,,,,,,,,,,,,,,,,,,,,,,,,,,,,,186.77021577997948,187.77062770002522,187.77062770002522,None,3.604166666666667,1.3111376999877393,187.77062770002522,None,,,,,,,,,,,,,,,,,,,,,,,,,,,,,,,,,,,,,,,,,,,,,t,001,2021_Jan_09_0116,piloto1,2020.2.5,59.860489154847656,
1000,0.0,imagenes/Alpinito.jpg,0.7416150880621702,None,0,3,3,3,0,13,13,0,,,,,,,,,,,,,,,,,,,,,,,,,,,,,,,,,,,,,,,,,188.1200930600171,189.12033020000672,189.12033020000672,None,None,None,189.12033020000672,None,,,,,,,,,,,,,,,,,,,,,,,,,,,,,,,,,,,,,,,,,,,,,t,001,2021_Jan_09_0116,piloto1,2020.2.5,59.860489154847656,
1000,0.0,imagenes/Uvas.jpg,0.4959291644143431,None,0,3,3,3,0,14,14,19,,,,,,,,,,,,,,,,,,,,,,,,,,,,,,,,,,,,,,,,,190.1201094800199,191.1202552000177,191.1202552000177,190.12018799997168,3.604166666666667,1.5568304999615066,191.1202552000177,190.12018799997168,,,,,,,,,,,,,,,,,,,,,,,,,,,,,,,,,,,,,,,,,,,,,t,001,2021_Jan_09_0116,piloto1,2020.2.5,59.860489154847656,
1000,0.0,imagenes/Popetas.jpg,0.9621625733302204,None,0,3,3,3,0,15,15,16,,,,,,,,,,,,,,,,,,,,,,,,,,,,,,,,,,,,,,,,,191.72011415997986,192.72019359999103,192.72019359999103,None,3.604166666666667,1.3594908000086434,192.72019359999103,None,,,,,,,,,,,,,,,,,,,,,,,,,,,,,,,,,,,,,,,,,,,,,t,001,2021_Jan_09_0116,piloto1,2020.2.5,59.860489154847656,
1000,0.0,imagenes/Pandebono.png,0.8988574378129985,None,0,3,3,3,0,16,16,26,,,,,,,,,,,,,,,,,,,,,,,,,,,,,,,,,,,,,,,,,193.11980136000784,194.12035779998405,194.0865279000136,None,3.604166666666667,1.4362123999744654,194.0865279000136,None,,,,,,,,,,,,,,,,,,,,,,,,,,,,,,,,,,,,,,,,,,,,,t,001,2021_Jan_09_0116,piloto1,2020.2.5,59.860489154847656,
1000,0.0,imagenes/Rollo de queso.png,0.9201641182756888,None,0,3,3,3,0,17,17,33,,,,,,,,,,,,,,,,,,,,,,,,,,,,,,,,,,,,,,,,,194.60302023999975,None,195.58687009999994,None,3.604166666666667,1.2843281000386924,195.58687009999994,None,,,,,,,,,,,,,,,,,,,,,,,,,,,,,,,,,,,,,,,,,,,,,t,001,2021_Jan_09_0116,piloto1,2020.2.5,59.860489154847656,
1000,0.0,imagenes/Chocoramo.jfif.jpg,0.7425528559884101,None,0,3,3,3,0,18,18,4,,,,,,,,,,,,,,,,,,,,,,,,,,,,,,,,,,,,,,,,,195.91990695998538,196.92015199997695,196.92015199997695,None,3.604166666666667,1.390757000015583,196.92015199997695,None,,,,,,,,,,,,,,,,,,,,,,,,,,,,,,,,,,,,,,,,,,,,,t,001,2021_Jan_09_0116,piloto1,2020.2.5,59.860489154847656,
1000,0.0,imagenes/Pescadito.png,0.7172825011486081,None,0,3,3,3,0,19,19,29,,,,,,,,,,,,,,,,,,,,,,,,,,,,,,,,,,,,,,,,,197.33682348000002,198.33642070001224,198.33642070001224,None,3.604166666666667,1.504288500000257,198.33642070001224,None,,,,,,,,,,,,,,,,,,,,,,,,,,,,,,,,,,,,,,,,,,,,,t,001,2021_Jan_09_0116,piloto1,2020.2.5,59.860489154847656,
1000,0.0,imagenes/Chontaduro.png,0.8693553300418813,None,0,3,3,3,0,20,20,23,,,,,,,,,,,,,,,,,,,,,,,,,,,,,,,,,,,,,,,,,198.86956448000274,199.86974779999582,199.86974779999582,None,3.604166666666667,1.338010800012853,199.86974779999582,None,,,,,,,,,,,,,,,,,,,,,,,,,,,,,,,,,,,,,,,,,,,,,t,001,2021_Jan_09_0116,piloto1,2020.2.5,59.860489154847656,
1000,0.0,imagenes/Nutella (1).jpg,0.8826531883338111,None,0,3,3,3,0,21,21,12,,,,,,,,,,,,,,,,,,,,,,,,,,,,,,,,,,,,,,,,,200.2366630800243,201.23640250001336,201.23640250001336,None,3.604166666666667,1.2210358000011183,201.23640250001336,None,,,,,,,,,,,,,,,,,,,,,,,,,,,,,,,,,,,,,,,,,,,,,t,001,2021_Jan_09_0116,piloto1,2020.2.5,59.860489154847656,
1000,0.0,imagenes/bon-bon-bun.jpg,0.7417452724056987,None,0,3,3,3,0,22,22,2,,,,,,,,,,,,,,,,,,,,,,,,,,,,,,,,,,,,,,,,,201.503194060002,202.5030945999897,202.5030945999897,None,3.604166666666667,1.6101828999817371,202.5030945999897,None,,,,,,,,,,,,,,,,,,,,,,,,,,,,,,,,,,,,,,,,,,,,,t,001,2021_Jan_09_0116,piloto1,2020.2.5,59.860489154847656,
1000,0.0,imagenes/Pepinillos.png,0.0038966441241518046,None,0,3,3,3,0,23,23,28,,,,,,,,,,,,,,,,,,,,,,,,,,,,,,,,,,,,,,,,,203.15318665996892,None,204.1362216999987,None,3.604166666666667,1.9304032999789342,204.1362216999987,None,,,,,,,,,,,,,,,,,,,,,,,,,,,,,,,,,,,,,,,,,,,,,t,001,2021_Jan_09_0116,piloto1,2020.2.5,59.860489154847656,
1000,0.0,imagenes/Brownie.jpg,0.2838924074864093,None,0,3,3,3,0,24,24,3,,,,,,,,,,,,,,,,,,,,,,,,,,,,,,,,,,,,,,,,,205.1360669400019,None,206.13591730000917,None,3.604166666666667,1.9086349999997765,206.13591730000917,None,,,,,,,,,,,,,,,,,,,,,,,,,,,,,,,,,,,,,,,,,,,,,t,001,2021_Jan_09_0116,piloto1,2020.2.5,59.860489154847656,
1000,0.0,imagenes/Galletas-festival.jpg,0.11306074364032936,None,0,3,3,3,0,25,25,7,,,,,,,,,,,,,,,,,,,,,,,,,,,,,,,,,,,,,,,,,207.08598396001616,None,208.0694569000043,None,3.604166666666667,1.8834800000186078,208.0694569000043,None,,,,,,,,,,,,,,,,,,,,,,,,,,,,,,,,,,,,,,,,,,,,,t,001,2021_Jan_09_0116,piloto1,2020.2.5,59.860489154847656,
1000,0.0,imagenes/Yogurt-alpina.jpg,0.5445152936222175,None,0,3,3,3,0,26,26,18,,,,,,,,,,,,,,,,,,,,,,,,,,,,,,,,,,,,,,,,,208.98620567997568,209.98620260000462,209.98620260000462,None,3.604166666666667,1.9542429000139236,209.98620260000462,None,,,,,,,,,,,,,,,,,,,,,,,,,,,,,,,,,,,,,,,,,,,,,t,001,2021_Jan_09_0116,piloto1,2020.2.5,59.860489154847656,
1000,0.0,imagenes/Rosquitas (1).jpg,0.024090340010977873,None,0,3,3,3,0,27,27,17,,,,,,,,,,,,,,,,,,,,,,,,,,,,,,,,,,,,,,,,,210.98599536000984,211.9858245999785,211.9858245999785,None,3.604166666666667,1.1882783999899402,211.9858245999785,None,,,,,,,,,,,,,,,,,,,,,,,,,,,,,,,,,,,,,,,,,,,,,t,001,2021_Jan_09_0116,piloto1,2020.2.5,59.860489154847656,
1000,0.0,imagenes/Papas-naturales.jpg,0.37590629905521566,None,0,3,3,3,0,28,28,13,,,,,,,,,,,,,,,,,,,,,,,,,,,,,,,,,,,,,,,,,212.2022982799972,213.2028215000173,213.1863792000222,None,3.604166666666667,1.2616189999971539,213.1863792000222,None,,,,,,,,,,,,,,,,,,,,,,,,,,,,,,,,,,,,,,,,,,,,,t,001,2021_Jan_09_0116,piloto1,2020.2.5,59.860489154847656,
1000,0.0,imagenes/Banano.jpeg,0.2267656716538785,None,0,3,3,3,0,29,29,1,,,,,,,,,,,,,,,,,,,,,,,,,,,,,,,,,,,,,,,,,213.48591238001245,214.48564089997672,214.48564089997672,None,None,None,214.48564089997672,None,,,,,,,,,,,,,,,,,,,,,,,,,,,,,,,,,,,,,,,,,,,,,t,001,2021_Jan_09_0116,piloto1,2020.2.5,59.860489154847656,
1000,0.0,imagenes/Papas picantes.jpg,0.524978898672612,None,0,3,3,3,0,30,30,27,,,,,,,,,,,,,,,,,,,,,,,,,,,,,,,,,,,,,,,,,215.48582978002378,216.48556350002764,216.46904719999293,215.48568480001995,3.604166666666667,1.3455595000414178,216.46904719999293,215.48568480001995,,,,,,,,,,,,,,,,,,,,,,,,,,,,,,,,,,,,,,,,,,,,,t,001,2021_Jan_09_0116,piloto1,2020.2.5,59.860489154847656,
1000,0.0,imagenes/Pizzetas.png,0.3295951589873042,None,0,3,3,3,0,31,31,32,,,,,,,,,,,,,,,,,,,,,,,,,,,,,,,,,,,,,,,,,216.86913586000446,217.86915059998864,217.85269859997788,None,3.604166666666667,1.1651214000303298,217.85269859997788,None,,,,,,,,,,,,,,,,,,,,,,,,,,,,,,,,,,,,,,,,,,,,,t,001,2021_Jan_09_0116,piloto1,2020.2.5,59.860489154847656,
1000,0.0,imagenes/Galletas Tosh.jpg,0.9129693753280027,None,0,3,3,3,0,32,32,6,,,,,,,,,,,,,,,,,,,,,,,,,,,,,,,,,,,,,,,,,218.0687697599642,None,219.05228720000014,None,3.604166666666667,1.2297368999570608,219.05228720000014,None,,,,,,,,,,,,,,,,,,,,,,,,,,,,,,,,,,,,,,,,,,,,,t,001,2021_Jan_09_0116,piloto1,2020.2.5,59.860489154847656,
1000,0.0,imagenes/Rollos de canela.png,0.2610974409574519,None,0,3,3,3,0,33,33,34,,,,,,,,,,,,,,,,,,,,,,,,,,,,,,,,,,,,,,,,,219.3355947600212,None,220.3020846999716,None,None,None,220.3020846999716,None,,,,,,,,,,,,,,,,,,,,,,,,,,,,,,,,,,,,,,,,,,,,,t,001,2021_Jan_09_0116,piloto1,2020.2.5,59.860489154847656,
1000,0.0,imagenes/Mango.jpeg,0.4341155418941499,None,0,3,3,3,0,34,34,10,,,,,,,,,,,,,,,,,,,,,,,,,,,,,,,,,,,,,,,,,221.35205531999236,None,222.33582350000506,221.34043709997786,3.604166666666667,1.6019744999939576,222.33582350000506,221.34043709997786,,,,,,,,,,,,,,,,,,,,,,,,,,,,,,,,,,,,,,,,,,,,,t,001,2021_Jan_09_0116,piloto1,2020.2.5,59.860489154847656,
1000,0.0,imagenes/salchicha hojaldrada.jpg,0.7119773165481526,None,0,3,3,3,0,35,35,35,,,,,,,,,,,,,,,,,,,,,,,,,,,,,,,,,,,,,,,,,222.96871878000093,223.96857799997088,223.95179109997116,None,3.604166666666667,1.0131247999961488,223.95179109997116,None,,,,,,,,,,,,,,,,,,,,,,,,,,,,,,,,,,,,,,,,,,,,,t,001,2021_Jan_09_0116,piloto1,2020.2.5,59.860489154847656,
1000,0.0,,,,0,3,3,3,,,,,,,,,,,,,,,,,,,,,,,,,,,,,,,,,,,,,,,,,,,,,,,,,,,,,,,,,,,,,,,,,,,,,,,,,,,,,,,,,,,,,,,,,,,,,,,,,t,001,2021_Jan_09_0116,piloto1,2020.2.5,59.860489154847656,
,,,,,,,,,,,,,,,,,,,,,,,,,,,,,,,,,,,,,,,,,,,,,,,,,,,,,,,,,,,,,224.00208290002774,None,space,5.379702599951997,224.00208290002774,None,,,,,,,,,,,,,,,,,,,,,,,,,,,,,,,,,,,,,,,t,001,2021_Jan_09_0116,piloto1,2020.2.5,59.860489154847656,
,,,,,,,,,,,,,,,,,,,,,,,,,,,,,,,,,,,,,,,,,,,,,,,,,,,,,,,,,,,,,,,,,,,229.40244859998347,None,space,0.6465241000405513,229.40244859998347,None,,,,,,,,,,,,,,,,,,,,,,,,,,,,,,,,,t,001,2021_Jan_09_0116,piloto1,2020.2.5,59.860489154847656,
,,,,,,,,,,,,,,,,,,,,,,,,,,,,,,,,,,,,,,,,,,,,,,,,,,,,,,,,,,,,,,,,,,,,,,,,,230.10499249998247,None,space,0.7368671000003815,230.10499249998247,None,,,,,,,,,,,,,,,,,,,,,,,,,,,t,001,2021_Jan_09_0116,piloto1,2020.2.5,59.860489154847656,
,,,,,,,,,,,,,,,,,,,,,,,,,,,,,,,,,,,,,,,,,,,,,,,,,,,,,,,,,,,,,,,,,,,,,,,,,,,,,,,230.87519729998894,None,space,0.6777729000314139,230.87519729998894,None,,,,,,,,,,,,,,,,,,,,,t,001,2021_Jan_09_0116,piloto1,2020.2.5,59.860489154847656,
,,,,,,,,,,,,,,,,,,,,,,,,,,,,,,,,,,,,,,,,,,,,,,,,,,,,,,,,,,,,,,,,,,,,,,,,,,,,,,,,,,,,,231.5708098000032,None,231.5708098000032,None,space,1.3110296999802813,231.5708098000032,None,,,,,,,,,,,,,t,001,2021_Jan_09_0116,piloto1,2020.2.5,59.860489154847656,
,,,,,,,,,,,,,,,,,,,,,,,,,,,,,,,,,,,,,,,,,,,,,,,,,,,,,,,,,,,,,,,,,,,,,,,,,,,,,,,,,,,,,,,,,,,,,232.92060040001525,None,space,0.7260285000083968,232.92060040001525,None,,,,,,,t,001,2021_Jan_09_0116,piloto1,2020.2.5,59.860489154847656,
,,,,,,,,,,,,,,,,,,,,,,,,,,,,,,,,,,,,,,,,,,,,,,,,,,,,,,,,,,,,,,,,,,,,,,,,,,,,,,,,,,,,,,,,,,,,,,,,,,,233.6690469000023,None,space,2.500678499985952,233.6690469000023,None,t,001,2021_Jan_09_0116,piloto1,2020.2.5,59.860489154847656,
