Hertz,volumen,Imagenes,Random,Correcto,trials.thisRepN,trials.thisTrialN,trials.thisN,trials.thisIndex,trials_2.thisRepN,trials_2.thisTrialN,trials_2.thisN,trials_2.thisIndex,sound_3.started,sound_3.stopped,Sonido.started,Sonido.stopped,image_2.started,image_2.stopped,slider_2.response,slider_2.rt,slider_2.started,slider_2.stopped,text_2.started,text_2.stopped,text_3.started,text_3.stopped,text.started,text.stopped,text_4.started,text_4.stopped,participant,session,date,expName,psychopyVersion,frameRate,
1500,0.02,imagenes/Brownie.jpg,0.2838924074864093,None,0,0,0,1,0,0,0,3,50.81631715917029,None,61.133046459825714,None,62.217819100013,None,3.44140625,2.3449146000202745,62.217819100013,None,,,,,,,,,t,001,2021_Jan_05_1550,piloto1,2020.2.5,59.97584174249214,
1500,0.02,imagenes/Canelazo.png,0.6730479360767814,None,0,0,0,1,0,1,1,22,,,63.548910360038285,None,64.5323356000008,None,3.4869791666666665,2.0129580999491736,64.5323356000008,None,,,,,,,,,t,001,2021_Jan_05_1550,piloto1,2020.2.5,59.97584174249214,
1500,0.02,imagenes/Papas-pollo.jpg,0.08373485417902837,None,0,0,0,1,0,2,2,15,,,65.59883977994323,66.59867039998062,66.59867039998062,None,3.4869791666666665,2.0598471000557765,66.59867039998062,None,,,,,,,,,t,001,2021_Jan_05_1550,piloto1,2020.2.5,59.97584174249214,
1500,0.02,imagenes/Galletas-festival.jpg,0.11306074364032936,None,0,0,0,1,0,3,3,7,,,67.69867447994184,None,68.68371320003644,None,3.4869791666666665,2.430316200014204,68.68371320003644,None,,,,,,,,,t,001,2021_Jan_05_1550,piloto1,2020.2.5,59.97584174249214,
1500,0.02,imagenes/Manzana.jpg,0.4048420327008191,None,0,0,0,1,0,4,4,11,,,70.18203692000826,None,71.16539089998696,None,3.4869791666666665,1.1174964000238106,71.16539089998696,None,,,,,,,,,t,001,2021_Jan_05_1550,piloto1,2020.2.5,59.97584174249214,
1500,0.02,imagenes/Rollos de canela.png,0.2610974409574519,None,0,0,0,1,0,5,5,34,,,71.33166057998315,72.33202540001366,72.31526259996463,None,3.571614583333333,1.5019227999728173,72.31526259996463,None,,,,,,,,,t,001,2021_Jan_05_1550,piloto1,2020.2.5,59.97584174249214,
1500,0.02,imagenes/Almojabanas.png,0.6725051200713246,None,0,0,0,1,0,6,6,20,,,72.88159001993482,None,73.86753180006053,None,3.571614583333333,1.530803200090304,73.86753180006053,None,,,,,,,,,t,001,2021_Jan_05_1550,piloto1,2020.2.5,59.97584174249214,
1500,0.02,imagenes/Brocoli.jpg,0.24293074945529525,None,0,0,0,1,0,7,7,21,,,74.43181493999437,75.43196279997937,75.43196279997937,None,3.571614583333333,1.460715499939397,75.43196279997937,None,,,,,,,,,t,001,2021_Jan_05_1550,piloto1,2020.2.5,59.97584174249214,
1500,0.02,imagenes/pistachos.jpg,0.7450869742741464,None,0,0,0,1,0,8,8,30,,,75.91478283999022,None,76.89890340005513,None,3.571614583333333,1.414419100037776,76.89890340005513,None,,,,,,,,,t,001,2021_Jan_05_1550,piloto1,2020.2.5,59.97584174249214,
1500,0.02,imagenes/salchicha hojaldrada.jpg,0.7119773165481526,None,0,0,0,1,0,9,9,35,,,77.34844553999137,None,78.3316939000506,None,3.571614583333333,1.5123486999655142,78.3316939000506,None,,,,,,,,,t,001,2021_Jan_05_1550,piloto1,2020.2.5,59.97584174249214,
1500,0.02,imagenes/Coliflor.jpg,0.3640740491088985,None,0,0,0,1,0,10,10,24,,,78.88155074003153,79.88163620000705,79.88163620000705,None,3.571614583333333,1.6714298001024872,79.88163620000705,None,,,,,,,,,t,001,2021_Jan_05_1550,piloto1,2020.2.5,59.97584174249214,
1500,0.02,imagenes/Nutella (1).jpg,0.8826531883338111,None,0,0,0,1,0,11,11,12,,,80.58156894000713,81.58168239996303,81.58168239996303,None,3.571614583333333,1.7716854999307543,81.58168239996303,None,,,,,,,,,t,001,2021_Jan_05_1550,piloto1,2020.2.5,59.97584174249214,
1500,0.02,imagenes/Banano.jpeg,0.2267656716538785,None,0,0,0,1,0,12,12,1,,,82.39796367995442,None,83.38138250005431,None,3.571614583333333,2.103021000046283,83.38138250005431,None,,,,,,,,,t,001,2021_Jan_05_1550,piloto1,2020.2.5,59.97584174249214,
1500,0.02,imagenes/Pizzetas.png,0.3295951589873042,None,0,0,0,1,0,13,13,32,,,84.53103268004489,85.53141699999105,85.53141699999105,None,3.571614583333333,1.8222796999616548,85.53141699999105,None,,,,,,,,,t,001,2021_Jan_05_1550,piloto1,2020.2.5,59.97584174249214,
1500,0.02,imagenes/Uvas.jpg,0.4959291644143431,None,0,0,0,1,0,14,14,19,,,86.39782467994374,87.3980295000365,87.38133250002284,None,3.571614583333333,1.613359299954027,87.38133250002284,None,,,,,,,,,t,001,2021_Jan_05_1550,piloto1,2020.2.5,59.97584174249214,
1500,0.02,imagenes/Papas-naturales.jpg,0.37590629905521566,None,0,0,0,1,0,15,15,13,,,88.03089483994991,89.03117129998282,89.03117129998282,None,3.571614583333333,2.023020000080578,89.03117129998282,None,,,,,,,,,t,001,2021_Jan_05_1550,piloto1,2020.2.5,59.97584174249214,
1500,0.02,imagenes/Pepinillos.png,0.0038966441241518046,None,0,0,0,1,0,16,16,28,,,90.14757759997156,None,91.13204789999872,None,3.571614583333333,1.5815411999356002,91.13204789999872,None,,,,,,,,,t,001,2021_Jan_05_1550,piloto1,2020.2.5,59.97584174249214,
1500,0.02,imagenes/Chocoramo.jfif.jpg,0.7425528559884101,None,0,0,0,1,0,17,17,4,,,91.78109502003063,92.7810349999927,92.7810349999927,None,3.571614583333333,1.4581117000197992,92.7810349999927,None,,,,,,,,,t,001,2021_Jan_05_1550,piloto1,2020.2.5,59.97584174249214,
1500,0.02,imagenes/Pescadito.png,0.7172825011486081,None,0,0,0,1,0,18,18,29,,,93.2807076800149,94.28100750001613,94.26433519995771,None,3.571614583333333,1.8803505999967456,94.26433519995771,None,,,,,,,,,t,001,2021_Jan_05_1550,piloto1,2020.2.5,59.97584174249214,
1500,0.02,imagenes/Papas-limon.jpg,0.5280798509093595,None,0,0,0,1,0,19,19,14,,,95.18070484003984,96.18086940003559,96.18086940003559,None,3.571614583333333,2.173596700071357,96.18086940003559,None,,,,,,,,,t,001,2021_Jan_05_1550,piloto1,2020.2.5,59.97584174249214,
1500,0.02,imagenes/Leche-de-almendras.jpg,0.3886559457994673,None,0,0,0,1,0,20,20,9,,,97.46385233993642,98.46401510003489,98.46401510003489,None,3.532552083333333,1.5772530999965966,98.46401510003489,None,,,,,,,,,t,001,2021_Jan_05_1550,piloto1,2020.2.5,59.97584174249214,
1500,0.02,imagenes/Croissant.jpg,0.5824748589948932,None,0,0,0,1,0,21,21,5,,,99.09754701997154,None,100.08058740000706,None,3.532552083333333,1.5494972999440506,100.08058740000706,None,,,,,,,,,t,001,2021_Jan_05_1550,piloto1,2020.2.5,59.97584174249214,
1500,0.02,imagenes/Rosquitas (1).jpg,0.024090340010977873,None,0,0,0,1,0,22,22,17,,,100.69731122001541,None,101.69728830002714,None,3.532552083333333,1.5241019000532106,101.69728830002714,None,,,,,,,,,t,001,2021_Jan_05_1550,piloto1,2020.2.5,59.97584174249214,
1500,0.02,imagenes/bon-bon-bun.jpg,0.7417452724056987,None,0,0,0,1,0,23,23,2,,,102.26368507996668,103.26383020007052,103.26383020007052,None,3.532552083333333,1.1244793999940157,103.26383020007052,None,,,,,,,,,t,001,2021_Jan_05_1550,piloto1,2020.2.5,59.97584174249214,
1500,0.02,imagenes/Yogurt-alpina.jpg,0.5445152936222175,None,0,0,0,1,0,24,24,18,,,103.43041748004035,None,104.41382670006715,None,3.532552083333333,1.8022801000624895,104.41382670006715,None,,,,,,,,,t,001,2021_Jan_05_1550,piloto1,2020.2.5,59.97584174249214,
1500,0.02,imagenes/Mango.jpeg,0.4341155418941499,None,0,0,0,1,0,25,25,10,,,105.26381428001915,None,106.26377680001315,None,3.532552083333333,1.5390073000453413,106.26377680001315,None,,,,,,,,,t,001,2021_Jan_05_1550,piloto1,2020.2.5,59.97584174249214,
1500,0.02,imagenes/Chontaduro.png,0.8693553300418813,None,0,0,0,1,0,26,26,23,,,106.8301033400232,107.8306212000316,107.8306212000316,None,3.532552083333333,1.4704875000752509,107.8306212000316,None,,,,,,,,,t,001,2021_Jan_05_1550,piloto1,2020.2.5,59.97584174249214,
1500,0.02,imagenes/Galletas Tosh.jpg,0.9129693753280027,None,0,0,0,1,0,27,27,6,,,108.34680607994088,None,109.34693250001874,None,3.532552083333333,1.5393760999431834,109.34693250001874,None,,,,,,,,,t,001,2021_Jan_05_1550,piloto1,2020.2.5,59.97584174249214,
1500,0.02,imagenes/Rollo de queso.png,0.9201641182756888,None,0,0,0,1,0,28,28,33,,,109.93004988003523,110.93020169995725,110.93020169995725,None,3.532552083333333,1.4888898000353947,110.93020169995725,None,,,,,,,,,t,001,2021_Jan_05_1550,piloto1,2020.2.5,59.97584174249214,
1500,0.02,imagenes/Pizza.png,0.21192443516553439,None,0,0,0,1,0,29,29,31,,,111.46348248000723,112.46349810005631,112.46349810005631,None,3.532552083333333,1.4377012000186369,112.46349810005631,None,,,,,,,,,t,001,2021_Jan_05_1550,piloto1,2020.2.5,59.97584174249214,
1500,0.02,imagenes/Muffin de banano.png,0.9610615059009696,None,0,0,0,1,0,30,30,25,,,112.97986755992751,113.98012690001633,113.96326960006263,None,3.55859375,1.5009187000105157,113.96326960006263,None,,,,,,,,,t,001,2021_Jan_05_1550,piloto1,2020.2.5,59.97584174249214,
1500,0.02,imagenes/Pandebono.png,0.8988574378129985,None,0,0,0,1,0,31,31,26,,,114.51326868005563,None,115.49807269999292,None,3.4739583333333335,1.3287035999819636,115.49807269999292,None,,,,,,,,,t,001,2021_Jan_05_1550,piloto1,2020.2.5,59.97584174249214,
1500,0.02,imagenes/Popetas.jpg,0.9621625733302204,None,0,0,0,1,0,32,32,16,,,115.89625661997125,None,116.88285349996295,None,3.4739583333333335,1.46475789998658,116.88285349996295,None,,,,,,,,,t,001,2021_Jan_05_1550,piloto1,2020.2.5,59.97584174249214,
1500,0.02,imagenes/Kiwi.jpg,0.3929145850942286,None,0,0,0,1,0,33,33,8,,,117.37981813999359,118.37956310005393,118.37956310005393,None,3.4739583333333335,2.041922300006263,118.37956310005393,None,,,,,,,,,t,001,2021_Jan_05_1550,piloto1,2020.2.5,59.97584174249214,
1500,0.02,imagenes/Papas picantes.jpg,0.524978898672612,None,0,0,0,1,0,34,34,27,,,119.4463573400164,None,120.4297535000369,None,3.4739583333333335,1.3780561999883503,120.4297535000369,None,,,,,,,,,t,001,2021_Jan_05_1550,piloto1,2020.2.5,59.97584174249214,
1500,0.02,imagenes/Alpinito.jpg,0.7416150880621702,None,0,0,0,1,0,35,35,0,,,120.87941632003059,121.87945090001449,121.8626897999784,None,3.4739583333333335,1.381507399957627,121.8626897999784,None,,,,,,,,,t,001,2021_Jan_05_1550,piloto1,2020.2.5,59.97584174249214,
1500,0.02,,,,0,0,0,1,,,,,,,,,,,,,,,,,,,,,,,t,001,2021_Jan_05_1550,piloto1,2020.2.5,59.97584174249214,
400,0.02,imagenes/Papas-pollo.jpg,0.08373485417902837,None,0,1,1,0,0,0,0,15,,,122.29630118000787,123.29621329996735,123.29621329996735,None,3.4739583333333335,1.5926062000216916,123.29621329996735,None,,,,,,,,,t,001,2021_Jan_05_1550,piloto1,2020.2.5,59.97584174249214,
400,0.02,imagenes/Yogurt-alpina.jpg,0.5445152936222175,None,0,1,1,0,0,1,1,18,,,123.92942008001265,124.92949839995708,124.91280359996017,None,3.4739583333333335,1.4785769000882283,124.91280359996017,None,,,,,,,,,t,001,2021_Jan_05_1550,piloto1,2020.2.5,59.97584174249214,
400,0.02,imagenes/Galletas-festival.jpg,0.11306074364032936,None,0,1,1,0,0,2,2,7,,,125.44591187997722,126.446164199966,126.446164199966,None,3.4739583333333335,1.2927890999708325,126.446164199966,None,,,,,,,,,t,001,2021_Jan_05_1550,piloto1,2020.2.5,59.97584174249214,
400,0.02,imagenes/Pescadito.png,0.7172825011486081,None,0,1,1,0,0,3,3,29,,,126.77917167996057,None,127.76268230006099,None,3.4739583333333335,1.2310211999574676,127.76268230006099,None,,,,,,,,,t,001,2021_Jan_05_1550,piloto1,2020.2.5,59.97584174249214,
400,0.02,imagenes/Canelazo.png,0.6730479360767814,None,0,1,1,0,0,4,4,22,,,128.07918385993688,None,129.06264959997497,None,3.4739583333333335,1.4679052999708802,129.06264959997497,None,,,,,,,,,t,001,2021_Jan_05_1550,piloto1,2020.2.5,59.97584174249214,
400,0.02,imagenes/Popetas.jpg,0.9621625733302204,None,0,1,1,0,0,5,5,16,,,129.6457349400036,130.64583719999064,130.64583719999064,None,3.4739583333333335,1.3441383000463247,130.64583719999064,None,,,,,,,,,t,001,2021_Jan_05_1550,piloto1,2020.2.5,59.97584174249214,
400,0.02,imagenes/Galletas Tosh.jpg,0.9129693753280027,None,0,1,1,0,0,6,6,6,,,131.0288788799429,None,132.02916689997073,None,3.4739583333333335,1.0924848999129608,132.02916689997073,None,,,,,,,,,t,001,2021_Jan_05_1550,piloto1,2020.2.5,59.97584174249214,
400,0.02,imagenes/Croissant.jpg,0.5824748589948932,None,0,1,1,0,0,7,7,5,,,132.17901771995238,133.1793369000079,133.16236349998508,None,3.4739583333333335,1.5120072000427172,133.16236349998508,None,,,,,,,,,t,001,2021_Jan_05_1550,piloto1,2020.2.5,59.97584174249214,
400,0.02,imagenes/Chocoramo.jfif.jpg,0.7425528559884101,None,0,1,1,0,0,8,8,4,,,133.7289664799813,134.72917339997366,134.72917339997366,None,3.4739583333333335,1.6561609000200406,134.72917339997366,None,,,,,,,,,t,001,2021_Jan_05_1550,piloto1,2020.2.5,59.97584174249214,
400,0.02,imagenes/Papas-limon.jpg,0.5280798509093595,None,0,1,1,0,0,9,9,14,,,135.4121309400536,136.4122694999678,136.4122694999678,None,3.4739583333333335,1.6888725999742746,136.4122694999678,None,,,,,,,,,t,001,2021_Jan_05_1550,piloto1,2020.2.5,59.97584174249214,
400,0.02,imagenes/Brownie.jpg,0.2838924074864093,None,0,1,1,0,0,10,10,3,,,137.16246481998823,None,138.14792939997278,None,3.4739583333333335,1.88171039998997,138.14792939997278,None,,,,,,,,,t,001,2021_Jan_05_1550,piloto1,2020.2.5,59.97584174249214,
400,0.02,imagenes/Coliflor.jpg,0.3640740491088985,None,0,1,1,0,0,11,11,24,,,139.06181844002566,None,140.0623439999763,None,3.4739583333333335,1.7546868999488652,140.0623439999763,None,,,,,,,,,t,001,2021_Jan_05_1550,piloto1,2020.2.5,59.97584174249214,
400,0.02,imagenes/Rollo de queso.png,0.9201641182756888,None,0,1,1,0,0,12,12,33,,,140.86218348003456,None,141.861918300041,None,3.4739583333333335,1.5909625999629498,141.861918300041,None,,,,,,,,,t,001,2021_Jan_05_1550,piloto1,2020.2.5,59.97584174249214,
400,0.02,imagenes/bon-bon-bun.jpg,0.7417452724056987,None,0,1,1,0,0,13,13,2,,,142.49530418005304,143.49515940004494,143.49515940004494,None,3.4739583333333335,1.4245529000181705,143.49515940004494,None,,,,,,,,,t,001,2021_Jan_05_1550,piloto1,2020.2.5,59.97584174249214,
400,0.02,imagenes/Almojabanas.png,0.6725051200713246,None,0,1,1,0,0,14,14,20,,,143.978372319974,144.97860460006632,144.9619912999915,None,3.4739583333333335,1.6478752000257373,144.9619912999915,None,,,,,,,,,t,001,2021_Jan_05_1550,piloto1,2020.2.5,59.97584174249214,
400,0.02,imagenes/Pandebono.png,0.8988574378129985,None,0,1,1,0,0,15,15,26,,,145.6616432800423,None,146.66153360006865,None,3.4739583333333335,1.3937899000011384,146.66153360006865,None,,,,,,,,,t,001,2021_Jan_05_1550,piloto1,2020.2.5,59.97584174249214,
400,0.02,imagenes/Mango.jpeg,0.4341155418941499,None,0,1,1,0,0,16,16,10,,,147.09475108000913,148.0949590000091,148.0949590000091,None,3.4739583333333335,1.471720900037326,148.0949590000091,None,,,,,,,,,t,001,2021_Jan_05_1550,piloto1,2020.2.5,59.97584174249214,
400,0.02,imagenes/Rosquitas (1).jpg,0.024090340010977873,None,0,1,1,0,0,17,17,17,,,148.61149638004133,149.61166349996347,149.61166349996347,None,3.4739583333333335,1.3933576999697834,149.61166349996347,None,,,,,,,,,t,001,2021_Jan_05_1550,piloto1,2020.2.5,59.97584174249214,
400,0.02,imagenes/Rollos de canela.png,0.2610974409574519,None,0,1,1,0,0,18,18,34,,,150.04504607999695,None,151.02849759999663,None,3.4739583333333335,1.3828617999097332,151.02849759999663,None,,,,,,,,,t,001,2021_Jan_05_1550,piloto1,2020.2.5,59.97584174249214,
400,0.02,imagenes/Nutella (1).jpg,0.8826531883338111,None,0,1,1,0,0,19,19,12,,,151.44478794005698,None,152.44451830000617,None,3.4739583333333335,1.6396976000396535,152.44451830000617,None,,,,,,,,,t,001,2021_Jan_05_1550,piloto1,2020.2.5,59.97584174249214,
400,0.02,imagenes/Chontaduro.png,0.8693553300418813,None,0,1,1,0,0,20,20,23,,,153.11130083997267,154.11155440006405,154.11155440006405,None,3.4739583333333335,1.3869657999603078,154.11155440006405,None,,,,,,,,,t,001,2021_Jan_05_1550,piloto1,2020.2.5,59.97584174249214,
400,0.02,imagenes/Pizza.png,0.21192443516553439,None,0,1,1,0,0,21,21,31,,,154.5278297400102,155.52808049996383,155.52808049996383,None,3.4739583333333335,1.508017500047572,155.52808049996383,None,,,,,,,,,t,001,2021_Jan_05_1550,piloto1,2020.2.5,59.97584174249214,
400,0.02,imagenes/Manzana.jpg,0.4048420327008191,None,0,1,1,0,0,22,22,11,,,156.07761218000667,None,157.0611074999906,None,3.4739583333333335,1.4657551000127569,157.0611074999906,None,,,,,,,,,t,001,2021_Jan_05_1550,piloto1,2020.2.5,59.97584174249214,
400,0.02,imagenes/Uvas.jpg,0.4959291644143431,None,0,1,1,0,0,23,23,19,,,157.5776770800352,None,158.5613475999562,None,3.4739583333333335,1.4683049001032487,158.5613475999562,None,,,,,,,,,t,001,2021_Jan_05_1550,piloto1,2020.2.5,59.97584174249214,
400,0.02,imagenes/Papas-naturales.jpg,0.37590629905521566,None,0,1,1,0,0,24,24,13,,,159.06089383997022,160.06122669996694,160.06122669996694,None,3.4739583333333335,1.4727576000150293,160.06122669996694,None,,,,,,,,,t,001,2021_Jan_05_1550,piloto1,2020.2.5,59.97584174249214,
400,0.02,imagenes/salchicha hojaldrada.jpg,0.7119773165481526,None,0,1,1,0,0,25,25,35,,,160.561262839986,161.5610830000369,161.5610830000369,None,3.4739583333333335,1.4735991000197828,161.5610830000369,None,,,,,,,,,t,001,2021_Jan_05_1550,piloto1,2020.2.5,59.97584174249214,
400,0.02,imagenes/Leche-de-almendras.jpg,0.3886559457994673,None,0,1,1,0,0,26,26,9,,,162.1608712799847,None,163.16091880004387,None,3.4739583333333335,1.242548800073564,163.16091880004387,None,,,,,,,,,t,001,2021_Jan_05_1550,piloto1,2020.2.5,59.97584174249214,
400,0.02,imagenes/Alpinito.jpg,0.7416150880621702,None,0,1,1,0,0,27,27,0,,,163.47741325998211,None,164.4609843000071,None,3.4739583333333335,1.4982343000592664,164.4609843000071,None,,,,,,,,,t,001,2021_Jan_05_1550,piloto1,2020.2.5,59.97584174249214,
400,0.02,imagenes/Papas picantes.jpg,0.524978898672612,None,0,1,1,0,0,28,28,27,,,164.99436884005553,165.99428149999585,165.97759959998075,None,3.4739583333333335,1.5444835000671446,165.97759959998075,None,,,,,,,,,t,001,2021_Jan_05_1550,piloto1,2020.2.5,59.97584174249214,
400,0.02,imagenes/Brocoli.jpg,0.24293074945529525,None,0,1,1,0,0,29,29,21,,,166.5939254199853,None,167.56091150001157,None,3.4739583333333335,1.3355622000526637,167.56091150001157,None,,,,,,,,,t,001,2021_Jan_05_1550,piloto1,2020.2.5,59.97584174249214,
400,0.02,imagenes/Pizzetas.png,0.3295951589873042,None,0,1,1,0,0,30,30,32,,,167.96069958000442,168.9607714000158,168.94420919998083,None,3.4739583333333335,1.0626709000207484,168.94420919998083,None,,,,,,,,,t,001,2021_Jan_05_1550,piloto1,2020.2.5,59.97584174249214,
400,0.02,imagenes/Muffin de banano.png,0.9610615059009696,None,0,1,1,0,0,31,31,25,,,169.0772280199686,170.0774478999665,170.06078070006333,None,3.4739583333333335,1.3943983999779448,170.06078070006333,None,,,,,,,,,t,001,2021_Jan_05_1550,piloto1,2020.2.5,59.97584174249214,
400,0.02,imagenes/Pepinillos.png,0.0038966441241518046,None,0,1,1,0,0,32,32,28,,,170.5107936799526,171.51060320006218,171.51060320006218,None,3.4739583333333335,1.5889521000208333,171.51060320006218,None,,,,,,,,,t,001,2021_Jan_05_1550,piloto1,2020.2.5,59.97584174249214,
400,0.02,imagenes/Kiwi.jpg,0.3929145850942286,None,0,1,1,0,0,33,33,8,,,172.12706073995213,None,173.11134740000125,None,3.4739583333333335,1.4956086999736726,173.11134740000125,None,,,,,,,,,t,001,2021_Jan_05_1550,piloto1,2020.2.5,59.97584174249214,
400,0.02,imagenes/Banano.jpeg,0.2267656716538785,None,0,1,1,0,0,34,34,1,,,173.66044337998608,174.66057760000695,174.64389559999108,None,3.4739583333333335,1.533542099990882,174.64389559999108,None,,,,,,,,,t,001,2021_Jan_05_1550,piloto1,2020.2.5,59.97584174249214,
400,0.02,imagenes/pistachos.jpg,0.7450869742741464,None,0,1,1,0,0,35,35,30,,,175.21018244004807,176.21043059998192,176.193708900013,None,3.4739583333333335,1.8288614000193775,176.193708900013,None,,,,,,,,,t,001,2021_Jan_05_1550,piloto1,2020.2.5,59.97584174249214,
400,0.02,,,,0,1,1,0,,,,,,,,,,,,,,,,,,,,,,,t,001,2021_Jan_05_1550,piloto1,2020.2.5,59.97584174249214,
1000,0.02,imagenes/Mango.jpeg,0.4341155418941499,None,0,2,2,2,0,0,0,10,,,177.0934235200053,None,178.07684540003538,None,3.4739583333333335,1.6825948000187054,178.07684540003538,None,,,,,,,,,t,001,2021_Jan_05_1550,piloto1,2020.2.5,59.97584174249214,
1000,0.02,imagenes/Pizzetas.png,0.3295951589873042,None,0,2,2,2,0,1,1,32,,,178.81010938002726,179.8102958999807,179.79361409996636,None,3.4739583333333335,1.7802085999865085,179.79361409996636,None,,,,,,,,,t,001,2021_Jan_05_1550,piloto1,2020.2.5,59.97584174249214,
1000,0.02,imagenes/Rollo de queso.png,0.9201641182756888,None,0,2,2,2,0,2,2,33,,,180.64350451997015,None,181.62730479997117,None,3.4739583333333335,1.4824701000470668,181.62730479997117,None,,,,,,,,,t,001,2021_Jan_05_1550,piloto1,2020.2.5,59.97584174249214,
1000,0.02,imagenes/Yogurt-alpina.jpg,0.5445152936222175,None,0,2,2,2,0,3,3,18,,,182.15987427996004,None,183.14347760006785,None,3.4739583333333335,1.7839100999990478,183.14347760006785,None,,,,,,,,,t,001,2021_Jan_05_1550,piloto1,2020.2.5,59.97584174249214,
1000,0.02,imagenes/Pandebono.png,0.8988574378129985,None,0,2,2,2,0,4,4,26,,,183.97643528003243,184.9764964999631,184.96004689997062,None,3.4739583333333335,1.529546199948527,184.96004689997062,None,,,,,,,,,t,001,2021_Jan_05_1550,piloto1,2020.2.5,59.97584174249214,
1000,0.02,imagenes/pistachos.jpg,0.7450869742741464,None,0,2,2,2,0,5,5,30,,,185.5263883399777,186.5265548999887,186.5100826000562,None,3.4739583333333335,1.7470830999081954,186.5100826000562,None,,,,,,,,,t,001,2021_Jan_05_1550,piloto1,2020.2.5,59.97584174249214,
1000,0.02,imagenes/Manzana.jpg,0.4048420327008191,None,0,2,2,2,0,6,6,11,,,187.3096660800278,188.30988159996923,188.30988159996923,None,3.4739583333333335,1.1238185000838712,188.30988159996923,None,,,,,,,,,t,001,2021_Jan_05_1550,piloto1,2020.2.5,59.97584174249214,
1000,0.02,imagenes/Papas picantes.jpg,0.524978898672612,None,0,2,2,2,0,7,7,27,,,188.45958993996027,189.46008119999897,189.44327619997784,None,3.4739583333333335,1.4117881000274792,189.44327619997784,None,,,,,,,,,t,001,2021_Jan_05_1550,piloto1,2020.2.5,59.97584174249214,
1000,0.02,imagenes/Uvas.jpg,0.4959291644143431,None,0,2,2,2,0,8,8,19,,,189.9095646800473,None,190.89301400003023,None,3.4739583333333335,1.4026190000586212,190.89301400003023,None,,,,,,,,,t,001,2021_Jan_05_1550,piloto1,2020.2.5,59.97584174249214,
1000,0.02,imagenes/Papas-pollo.jpg,0.08373485417902837,None,0,2,2,2,0,9,9,15,,,191.32630793999414,None,192.32632049999665,None,3.4739583333333335,1.40557629999239,192.32632049999665,None,,,,,,,,,t,001,2021_Jan_05_1550,piloto1,2020.2.5,59.97584174249214,
1000,0.02,imagenes/Brocoli.jpg,0.24293074945529525,None,0,2,2,2,0,10,10,21,,,192.75946393997873,193.75948580005206,193.75948580005206,None,3.4739583333333335,1.3596270000562072,193.75948580005206,None,,,,,,,,,t,001,2021_Jan_05_1550,piloto1,2020.2.5,59.97584174249214,
1000,0.02,imagenes/Canelazo.png,0.6730479360767814,None,0,2,2,2,0,11,11,22,,,194.1759634199785,195.1761916000396,195.15940420003608,None,3.4739583333333335,1.4294422999955714,195.15940420003608,None,,,,,,,,,t,001,2021_Jan_05_1550,piloto1,2020.2.5,59.97584174249214,
1000,0.02,imagenes/Alpinito.jpg,0.7416150880621702,None,0,2,2,2,0,12,12,0,,,195.70929363991598,196.70953690004535,196.6927435999969,None,3.4739583333333335,1.5327701000496745,196.6927435999969,None,,,,,,,,,t,001,2021_Jan_05_1550,piloto1,2020.2.5,59.97584174249214,
1000,0.02,imagenes/Popetas.jpg,0.9621625733302204,None,0,2,2,2,0,13,13,16,,,197.29245011999737,198.29275879997294,198.29275879997294,None,3.4739583333333335,1.2751491999952123,198.29275879997294,None,,,,,,,,,t,001,2021_Jan_05_1550,piloto1,2020.2.5,59.97584174249214,
1000,0.02,imagenes/Leche-de-almendras.jpg,0.3886559457994673,None,0,2,2,2,0,14,14,9,,,198.67581094002816,199.6758348000003,199.6758348000003,None,3.4739583333333335,1.4878008000086993,199.6758348000003,None,,,,,,,,,t,001,2021_Jan_05_1550,piloto1,2020.2.5,59.97584174249214,
1000,0.02,imagenes/Pescadito.png,0.7172825011486081,None,0,2,2,2,0,15,15,29,,,200.20906488001344,None,201.1926251000259,None,3.4739583333333335,1.497287500067614,201.1926251000259,None,,,,,,,,,t,001,2021_Jan_05_1550,piloto1,2020.2.5,59.97584174249214,
1000,0.02,imagenes/Rosquitas (1).jpg,0.024090340010977873,None,0,2,2,2,0,16,16,17,,,201.7424036799697,None,202.74254670005757,None,3.4739583333333335,1.4572432999266312,202.74254670005757,None,,,,,,,,,t,001,2021_Jan_05_1550,piloto1,2020.2.5,59.97584174249214,
1000,0.02,imagenes/Rollos de canela.png,0.2610974409574519,None,0,2,2,2,0,17,17,34,,,203.24232467995023,None,204.22776669997256,None,3.4739583333333335,2.3999175000935793,204.22776669997256,None,,,,,,,,,t,001,2021_Jan_05_1550,piloto1,2020.2.5,59.97584174249214,
1000,0.02,imagenes/Pizza.png,0.21192443516553439,None,0,2,2,2,0,18,18,31,,,205.6588479399681,206.65916060004383,206.65916060004383,None,3.4739583333333335,1.6031541000120342,206.65916060004383,None,,,,,,,,,t,001,2021_Jan_05_1550,piloto1,2020.2.5,59.97584174249214,
1000,0.02,imagenes/Pepinillos.png,0.0038966441241518046,None,0,2,2,2,0,19,19,28,,,207.30871788002548,None,208.30883920006454,None,3.4739583333333335,1.5756991999223828,208.30883920006454,None,,,,,,,,,t,001,2021_Jan_05_1550,piloto1,2020.2.5,59.97584174249214,
1000,0.02,imagenes/Banano.jpeg,0.2267656716538785,None,0,2,2,2,0,20,20,1,,,208.92525008004156,None,209.90875770000275,None,3.4739583333333335,1.7993244000244886,209.90875770000275,None,,,,,,,,,t,001,2021_Jan_05_1550,piloto1,2020.2.5,59.97584174249214,
1000,0.02,imagenes/Papas-limon.jpg,0.5280798509093595,None,0,2,2,2,0,21,21,14,,,210.74189613997004,211.74202560004778,211.74202560004778,None,3.4739583333333335,1.7223015999188647,211.74202560004778,None,,,,,,,,,t,001,2021_Jan_05_1550,piloto1,2020.2.5,59.97584174249214,
1000,0.02,imagenes/salchicha hojaldrada.jpg,0.7119773165481526,None,0,2,2,2,0,22,22,35,,,212.49179944004862,None,213.47525330004282,None,3.4739583333333335,1.296463800012134,213.47525330004282,None,,,,,,,,,t,001,2021_Jan_05_1550,piloto1,2020.2.5,59.97584174249214,
1000,0.02,imagenes/Kiwi.jpg,0.3929145850942286,None,0,2,2,2,0,23,23,8,,,213.8082921399502,None,214.79223540006205,None,3.4739583333333335,1.461958899977617,214.79223540006205,None,,,,,,,,,t,001,2021_Jan_05_1550,piloto1,2020.2.5,59.97584174249214,
1000,0.02,imagenes/bon-bon-bun.jpg,0.7417452724056987,None,0,2,2,2,0,24,24,2,,,215.32500921995378,None,216.2919495999813,None,3.4739583333333335,1.502468700055033,216.2919495999813,None,,,,,,,,,t,001,2021_Jan_05_1550,piloto1,2020.2.5,59.97584174249214,
1000,0.02,imagenes/Papas-naturales.jpg,0.37590629905521566,None,0,2,2,2,0,25,25,13,,,216.8582452799659,None,217.8251026000362,None,3.4739583333333335,1.4524184999754652,217.8251026000362,None,,,,,,,,,t,001,2021_Jan_05_1550,piloto1,2020.2.5,59.97584174249214,
1000,0.02,imagenes/Galletas Tosh.jpg,0.9129693753280027,None,0,2,2,2,0,26,26,6,,,218.3582237200113,None,219.32504450005945,None,3.4739583333333335,1.5023157000541687,219.32504450005945,None,,,,,,,,,t,001,2021_Jan_05_1550,piloto1,2020.2.5,59.97584174249214,
1000,0.02,imagenes/Croissant.jpg,0.5824748589948932,None,0,2,2,2,0,27,27,5,,,219.907984819985,220.9082730000373,220.9082730000373,None,3.4739583333333335,1.4233835999621078,220.9082730000373,None,,,,,,,,,t,001,2021_Jan_05_1550,piloto1,2020.2.5,59.97584174249214,
1000,0.02,imagenes/Chocoramo.jfif.jpg,0.7425528559884101,None,0,2,2,2,0,28,28,4,,,221.39144421999808,222.39152399997693,222.39152399997693,None,3.4739583333333335,1.5103202000027522,222.39152399997693,None,,,,,,,,,t,001,2021_Jan_05_1550,piloto1,2020.2.5,59.97584174249214,
1000,0.02,imagenes/Brownie.jpg,0.2838924074864093,None,0,2,2,2,0,29,29,3,,,222.95789921996183,223.95816879998893,223.9414293000009,None,3.4739583333333335,1.4285635000560433,223.9414293000009,None,,,,,,,,,t,001,2021_Jan_05_1550,piloto1,2020.2.5,59.97584174249214,
1000,0.02,imagenes/Nutella (1).jpg,0.8826531883338111,None,0,2,2,2,0,30,30,12,,,224.40796604000496,225.40810860006604,225.40810860006604,None,3.4739583333333335,1.4889536999398842,225.40810860006604,None,,,,,,,,,t,001,2021_Jan_05_1550,piloto1,2020.2.5,59.97584174249214,
1000,0.02,imagenes/Galletas-festival.jpg,0.11306074364032936,None,0,2,2,2,0,31,31,7,,,225.941109379963,226.9410989000462,226.92433930002153,None,3.4739583333333335,1.5620900000212714,226.92433930002153,None,,,,,,,,,t,001,2021_Jan_05_1550,piloto1,2020.2.5,59.97584174249214,
1000,0.02,imagenes/Almojabanas.png,0.6725051200713246,None,0,2,2,2,0,32,32,20,,,227.55792302000336,None,228.5413808999583,None,3.4739583333333335,1.5832544000586495,228.5413808999583,None,,,,,,,,,t,001,2021_Jan_05_1550,piloto1,2020.2.5,59.97584174249214,
1000,0.02,imagenes/Chontaduro.png,0.8693553300418813,None,0,2,2,2,0,33,33,23,,,229.1580153400311,230.15783429995645,230.15783429995645,None,3.4739583333333335,1.4699404999846593,230.15783429995645,None,,,,,,,,,t,001,2021_Jan_05_1550,piloto1,2020.2.5,59.97584174249214,
1000,0.02,imagenes/Muffin de banano.png,0.9610615059009696,None,0,2,2,2,0,34,34,25,,,230.69097611997276,231.69111020001583,231.69111020001583,None,3.4739583333333335,1.656283599906601,231.69111020001583,None,,,,,,,,,t,001,2021_Jan_05_1550,piloto1,2020.2.5,59.97584174249214,
1000,0.02,imagenes/Coliflor.jpg,0.3640740491088985,None,0,2,2,2,0,35,35,24,,,232.37418554006143,233.37438020005357,233.37438020005357,None,3.4739583333333335,1.6030194000340998,233.37438020005357,None,,,,,,,,,t,001,2021_Jan_05_1550,piloto1,2020.2.5,59.97584174249214,
1000,0.02,,,,0,2,2,2,,,,,,,,,,,,,,,,,,,,,,,t,001,2021_Jan_05_1550,piloto1,2020.2.5,59.97584174249214,
1000,0.0,imagenes/Papas picantes.jpg,0.524978898672612,None,0,3,3,3,0,0,0,27,,,234.0240973799722,None,235.0076601000037,None,3.4739583333333335,1.6320526999188587,235.0076601000037,None,,,,,,,,,t,001,2021_Jan_05_1550,piloto1,2020.2.5,59.97584174249214,
1000,0.0,imagenes/Croissant.jpg,0.5824748589948932,None,0,3,3,3,0,1,1,5,,,235.70734831995796,236.7074708000291,236.7074708000291,None,3.4739583333333335,1.6546059000538662,236.7074708000291,None,,,,,,,,,t,001,2021_Jan_05_1550,piloto1,2020.2.5,59.97584174249214,
1000,0.0,imagenes/Yogurt-alpina.jpg,0.5445152936222175,None,0,3,3,3,0,2,2,18,,,237.40720988004466,None,238.39385180000681,None,3.4739583333333335,1.50111419998575,238.39385180000681,None,,,,,,,,,t,001,2021_Jan_05_1550,piloto1,2020.2.5,59.97584174249214,
1000,0.0,imagenes/Chontaduro.png,0.8693553300418813,None,0,3,3,3,0,3,3,23,,,238.92377394000067,None,239.92402470007073,None,3.4739583333333335,1.421729400055483,239.92402470007073,None,,,,,,,,,t,001,2021_Jan_05_1550,piloto1,2020.2.5,59.97584174249214,
1000,0.0,imagenes/Alpinito.jpg,0.7416150880621702,None,0,3,3,3,0,4,4,0,,,240.40761062004603,None,241.3912237000186,None,3.4739583333333335,1.4988956999732181,241.3912237000186,None,,,,,,,,,t,001,2021_Jan_05_1550,piloto1,2020.2.5,59.97584174249214,
1000,0.0,imagenes/Pizza.png,0.21192443516553439,None,0,3,3,3,0,5,5,31,,,241.94058847995473,None,242.92406270001084,None,3.4739583333333335,1.4523559999652207,242.92406270001084,None,,,,,,,,,t,001,2021_Jan_05_1550,piloto1,2020.2.5,59.97584174249214,
1000,0.0,imagenes/Brownie.jpg,0.2838924074864093,None,0,3,3,3,0,6,6,3,,,243.44039912000298,244.44057750003412,244.42384609999135,None,3.4739583333333335,1.5327316999901086,244.42384609999135,None,,,,,,,,,t,001,2021_Jan_05_1550,piloto1,2020.2.5,59.97584174249214,
1000,0.0,imagenes/Galletas-festival.jpg,0.11306074364032936,None,0,3,3,3,0,7,7,7,,,245.02358081997372,None,246.0076019000262,None,3.4739583333333335,1.5677252999739721,246.0076019000262,None,,,,,,,,,t,001,2021_Jan_05_1550,piloto1,2020.2.5,59.97584174249214,
1000,0.0,imagenes/bon-bon-bun.jpg,0.7417452724056987,None,0,3,3,3,0,8,8,2,,,246.64042022000066,247.64034270006232,247.62368199997582,None,3.4739583333333335,1.4002796000568196,247.62368199997582,None,,,,,,,,,t,001,2021_Jan_05_1550,piloto1,2020.2.5,59.97584174249214,
1000,0.0,imagenes/Papas-pollo.jpg,0.08373485417902837,None,0,3,3,3,0,9,9,15,,,248.05691633995156,None,249.05693179997616,None,3.4739583333333335,1.4567559999413788,249.05693179997616,None,,,,,,,,,t,001,2021_Jan_05_1550,piloto1,2020.2.5,59.97584174249214,
1000,0.0,imagenes/Rollo de queso.png,0.9201641182756888,None,0,3,3,3,0,10,10,33,,,249.57357761999592,None,250.55681870004628,None,3.4739583333333335,1.5997630999190733,250.55681870004628,None,,,,,,,,,t,001,2021_Jan_05_1550,piloto1,2020.2.5,59.97584174249214,
1000,0.0,imagenes/Brocoli.jpg,0.24293074945529525,None,0,3,3,3,0,11,11,21,,,251.1899737399537,252.18988740001805,252.1732879000483,None,3.4739583333333335,1.6621823000023142,252.1732879000483,None,,,,,,,,,t,001,2021_Jan_05_1550,piloto1,2020.2.5,59.97584174249214,
1000,0.0,imagenes/Rollos de canela.png,0.2610974409574519,None,0,3,3,3,0,12,12,34,,,252.88987318004945,253.8899933999637,253.87335899996106,None,3.4739583333333335,1.0166366000194103,253.87335899996106,None,,,,,,,,,t,001,2021_Jan_05_1550,piloto1,2020.2.5,59.97584174249214,
1000,0.0,imagenes/Popetas.jpg,0.9621625733302204,None,0,3,3,3,0,13,13,16,,,253.95655791999306,254.95668569998816,254.95668569998816,None,3.4739583333333335,1.5546167000429705,254.95668569998816,None,,,,,,,,,t,001,2021_Jan_05_1550,piloto1,2020.2.5,59.97584174249214,
1000,0.0,imagenes/pistachos.jpg,0.7450869742741464,None,0,3,3,3,0,14,14,30,,,255.53979393995832,256.54006500006653,256.5232003000565,None,3.4739583333333335,1.5789990000193939,256.5232003000565,None,,,,,,,,,t,001,2021_Jan_05_1550,piloto1,2020.2.5,59.97584174249214,
1000,0.0,imagenes/Mango.jpeg,0.4341155418941499,None,0,3,3,3,0,15,15,10,,,257.15628127995876,None,258.15623850002885,None,3.4739583333333335,1.473736499901861,258.15623850002885,None,,,,,,,,,t,001,2021_Jan_05_1550,piloto1,2020.2.5,59.97584174249214,
1000,0.0,imagenes/Leche-de-almendras.jpg,0.3886559457994673,None,0,3,3,3,0,16,16,9,,,258.75662927990777,259.7563034000341,259.7563034000341,None,3.4739583333333335,1.5035714000696316,259.7563034000341,None,,,,,,,,,t,001,2021_Jan_05_1550,piloto1,2020.2.5,59.97584174249214,
1000,0.0,imagenes/Galletas Tosh.jpg,0.9129693753280027,None,0,3,3,3,0,17,17,6,,,260.3061065800488,261.30633799999487,261.30633799999487,None,3.4739583333333335,1.370412899996154,261.30633799999487,None,,,,,,,,,t,001,2021_Jan_05_1550,piloto1,2020.2.5,59.97584174249214,
1000,0.0,imagenes/Pandebono.png,0.8988574378129985,None,0,3,3,3,0,18,18,26,,,261.7228211799869,None,262.70814290002454,None,3.4739583333333335,1.4183267999906093,262.70814290002454,None,,,,,,,,,t,001,2021_Jan_05_1550,piloto1,2020.2.5,59.97584174249214,
1000,0.0,imagenes/Pescadito.png,0.7172825011486081,None,0,3,3,3,0,19,19,29,,,263.1724389800569,None,264.15836320002563,None,3.4739583333333335,1.4144058999372646,264.15836320002563,None,,,,,,,,,t,001,2021_Jan_05_1550,piloto1,2020.2.5,59.97584174249214,
1000,0.0,imagenes/Uvas.jpg,0.4959291644143431,None,0,3,3,3,0,20,20,19,,,264.6059247400146,265.606213400024,265.606213400024,None,3.4739583333333335,1.521073800045997,265.606213400024,None,,,,,,,,,t,001,2021_Jan_05_1550,piloto1,2020.2.5,59.97584174249214,
1000,0.0,imagenes/Manzana.jpg,0.4048420327008191,None,0,3,3,3,0,21,21,11,,,266.17247938001526,None,267.15598190005403,None,3.4739583333333335,1.5817952000070363,267.15598190005403,None,,,,,,,,,t,001,2021_Jan_05_1550,piloto1,2020.2.5,59.97584174249214,
1000,0.0,imagenes/Kiwi.jpg,0.3929145850942286,None,0,3,3,3,0,22,22,8,,,267.77248304004314,None,268.7564591000555,None,3.4739583333333335,1.9948965000221506,268.7564591000555,None,,,,,,,,,t,001,2021_Jan_05_1550,piloto1,2020.2.5,59.97584174249214,
1000,0.0,imagenes/Muffin de banano.png,0.9610615059009696,None,0,3,3,3,0,23,23,25,,,269.8225866200169,None,270.80743939999957,None,3.4739583333333335,1.5153085000347346,270.80743939999957,None,,,,,,,,,t,001,2021_Jan_05_1550,piloto1,2020.2.5,59.97584174249214,
1000,0.0,imagenes/Papas-naturales.jpg,0.37590629905521566,None,0,3,3,3,0,24,24,13,,,271.35581253997515,272.35582719999366,272.35582719999366,None,3.4739583333333335,1.4917075999546796,272.35582719999366,None,,,,,,,,,t,001,2021_Jan_05_1550,piloto1,2020.2.5,59.97584174249214,
1000,0.0,imagenes/Papas-limon.jpg,0.5280798509093595,None,0,3,3,3,0,25,25,14,,,272.87226984002626,273.87243280000985,273.87243280000985,None,3.4739583333333335,1.4738331000553444,273.87243280000985,None,,,,,,,,,t,001,2021_Jan_05_1550,piloto1,2020.2.5,59.97584174249214,
1000,0.0,imagenes/salchicha hojaldrada.jpg,0.7119773165481526,None,0,3,3,3,0,26,26,35,,,274.3721968400525,None,275.3555041999789,None,3.4739583333333335,1.4300871999002993,275.3555041999789,None,,,,,,,,,t,001,2021_Jan_05_1550,piloto1,2020.2.5,59.97584174249214,
1000,0.0,imagenes/Pizzetas.png,0.3295951589873042,None,0,3,3,3,0,27,27,32,,,275.8388606799766,276.8390272000106,276.8224876000313,None,3.4739583333333335,1.5436412000562996,276.8224876000313,None,,,,,,,,,t,001,2021_Jan_05_1550,piloto1,2020.2.5,59.97584174249214,
1000,0.0,imagenes/Chocoramo.jfif.jpg,0.7425528559884101,None,0,3,3,3,0,28,28,4,,,277.4387646200135,278.43888789997436,278.4222250999883,None,3.4739583333333335,1.4947662999620661,278.4222250999883,None,,,,,,,,,t,001,2021_Jan_05_1550,piloto1,2020.2.5,59.97584174249214,
1000,0.0,imagenes/Almojabanas.png,0.6725051200713246,None,0,3,3,3,0,29,29,20,,,278.98866582000625,279.988682199968,279.97229519998655,None,3.4739583333333335,1.6140927999513224,279.97229519998655,None,,,,,,,,,t,001,2021_Jan_05_1550,piloto1,2020.2.5,59.97584174249214,
1000,0.0,imagenes/Pepinillos.png,0.0038966441241518046,None,0,3,3,3,0,30,30,28,,,280.65522372003176,281.6554072999861,281.6386721000308,None,3.4739583333333335,1.56164319999516,281.6386721000308,None,,,,,,,,,t,001,2021_Jan_05_1550,piloto1,2020.2.5,59.97584174249214,
1000,0.0,imagenes/Rosquitas (1).jpg,0.024090340010977873,None,0,3,3,3,0,31,31,17,,,282.271604419942,None,283.25780999998096,None,3.4739583333333335,1.80202899989672,283.25780999998096,None,,,,,,,,,t,001,2021_Jan_05_1550,piloto1,2020.2.5,59.97584174249214,
1000,0.0,imagenes/Coliflor.jpg,0.3640740491088985,None,0,3,3,3,0,32,32,24,,,284.08890944002195,285.0885251000291,285.0885251000291,None,3.4739583333333335,1.4863798000151291,285.0885251000291,None,,,,,,,,,t,001,2021_Jan_05_1550,piloto1,2020.2.5,59.97584174249214,
1000,0.0,imagenes/Canelazo.png,0.6730479360767814,None,0,3,3,3,0,33,33,22,,,285.63847221995235,286.63867100002244,286.63867100002244,None,3.4739583333333335,1.510548199992627,286.63867100002244,None,,,,,,,,,t,001,2021_Jan_05_1550,piloto1,2020.2.5,59.97584174249214,
1000,0.0,imagenes/Banano.jpeg,0.2267656716538785,None,0,3,3,3,0,34,34,1,,,287.1882308800472,None,288.17172740004025,None,3.4739583333333335,1.568258099956438,288.17172740004025,None,,,,,,,,,t,001,2021_Jan_05_1550,piloto1,2020.2.5,59.97584174249214,
1000,0.0,imagenes/Nutella (1).jpg,0.8826531883338111,None,0,3,3,3,0,35,35,12,,,288.77151123997754,289.7717544999905,289.7717544999905,None,3.4739583333333335,1.6885400000028312,289.7717544999905,None,,,,,,,,,t,001,2021_Jan_05_1550,piloto1,2020.2.5,59.97584174249214,
1000,0.0,,,,0,3,3,3,,,,,,,,,,,,,,,,,,,,,,,t,001,2021_Jan_05_1550,piloto1,2020.2.5,59.97584174249214,
,,,,,,,,,,,,,,,,,,,,,,,290.48854419996496,None,291.48876440001186,None,292.5549827000359,None,293.57951469998807,None,,,,,,,
