Hertz,volumen,Imagenes,Random,Correcto,trials.thisRepN,trials.thisTrialN,trials.thisN,trials.thisIndex,trials_2.thisRepN,trials_2.thisTrialN,trials_2.thisN,trials_2.thisIndex,sound_3.started,sound_3.stopped,Sonido.started,Sonido.stopped,image_2.started,image_2.stopped,slider_2.response,slider_2.rt,slider_2.started,slider_2.stopped,text_2.started,text_2.stopped,text_3.started,text_3.stopped,text.started,text.stopped,text_4.started,text_4.stopped,image.started,image.stopped,texto_final.started,texto_final.stopped,participant,session,date,expName,psychopyVersion,frameRate,
1000,0.0,imagenes/Papas-pollo.jpg,0.08373485417902837,None,0,0,0,3,0,0,0,15,10.747481660001721,None,20.846575660000962,None,21.879866700001003,None,3.4479166666666665,1.5654286999997566,21.879866700001003,None,,,,,,,,,,,,,w,001,2020_Dec_01_1534,piloto1,2020.2.5,59.996604192319055,
1000,0.0,imagenes/Chocoramo.jfif.jpg,0.7425528559884101,None,0,0,0,3,0,1,1,4,,,22.463139030000637,23.463293000000704,23.463293000000704,None,2.627604166666667,1.3208364000001893,23.463293000000704,None,,,,,,,,,,,,,w,001,2020_Dec_01_1534,piloto1,2020.2.5,59.996604192319055,
1000,0.0,imagenes/Kiwi.jpg,0.3929145850942286,None,0,0,0,3,0,2,2,8,,,23.829806620000817,None,24.81292620000022,None,2.25,1.4851644999998825,24.81292620000022,None,,,,,,,,,,,,,w,001,2020_Dec_01_1534,piloto1,2020.2.5,59.996604192319055,
1000,0.0,imagenes/Galletas-festival.jpg,0.11306074364032936,None,0,0,0,3,0,3,3,7,,,25.362926530001094,26.36255270000038,26.345897400000467,None,2.42578125,1.1490221999993082,26.345897400000467,None,,,,,,,,,,,,,w,001,2020_Dec_01_1534,piloto1,2020.2.5,59.996604192319055,
1000,0.0,imagenes/Rollos de canela.png,0.2610974409574519,None,0,0,0,3,0,4,4,34,,,26.546354120000977,None,27.529942500001198,None,1.5924479166666665,1.2963619000001927,27.529942500001198,None,,,,,,,,,,,,,w,001,2020_Dec_01_1534,piloto1,2020.2.5,59.996604192319055,
1000,0.0,imagenes/Galletas Tosh.jpg,0.9129693753280027,None,0,0,0,3,0,5,5,6,,,27.87961492000104,28.879669699999795,28.879669699999795,None,1.5729166666666665,1.1060766000009608,28.879669699999795,None,,,,,,,,,,,,,w,001,2020_Dec_01_1534,piloto1,2020.2.5,59.996604192319055,
1000,0.0,imagenes/Pizzetas.png,0.3295951589873042,None,0,0,0,3,0,6,6,32,,,29.046478130000285,None,30.0302427000006,None,1.5729166666666665,1.1321505999985675,30.0302427000006,None,,,,,,,,,,,,,w,001,2020_Dec_01_1534,piloto1,2020.2.5,59.996604192319055,
1000,0.0,imagenes/Papas picantes.jpg,0.524978898672612,None,0,0,0,3,0,7,7,27,,,30.1959574100003,31.196153900000354,31.196153900000354,None,1.5729166666666665,1.122214899998653,31.196153900000354,None,,,,,,,,,,,,,w,001,2020_Dec_01_1534,piloto1,2020.2.5,59.996604192319055,
1000,0.0,imagenes/Pizza.png,0.21192443516553439,None,0,0,0,3,0,8,8,31,,,31.34584440999988,None,32.34611810000024,None,1.5729166666666665,1.470190600000933,32.34611810000024,None,,,,,,,,,,,,,w,001,2020_Dec_01_1534,piloto1,2020.2.5,59.996604192319055,
1000,0.0,imagenes/bon-bon-bun.jpg,0.7417452724056987,None,0,0,0,3,0,9,9,2,,,32.8791648299999,None,33.86256870000034,None,1.5729166666666665,1.1182361999999557,33.86256870000034,None,,,,,,,,,,,,,w,001,2020_Dec_01_1534,piloto1,2020.2.5,59.996604192319055,
1000,0.0,imagenes/Chontaduro.png,0.8693553300418813,None,0,0,0,3,0,10,10,23,,,34.01254490999982,35.012409000000844,35.012409000000844,None,1.5729166666666665,1.254236500000843,35.012409000000844,None,,,,,,,,,,,,,w,001,2020_Dec_01_1534,piloto1,2020.2.5,59.996604192319055,
1000,0.0,imagenes/Coliflor.jpg,0.3640740491088985,None,0,0,0,3,0,11,11,24,,,35.295889610001,36.29623639999954,36.29623639999954,None,1.5729166666666665,1.4043830999999045,36.29623639999954,None,,,,,,,,,,,,,w,001,2020_Dec_01_1534,piloto1,2020.2.5,59.996604192319055,
1000,0.0,imagenes/Popetas.jpg,0.9621625733302204,None,0,0,0,3,0,12,12,16,,,36.77921594000036,None,37.76226359999964,None,1.5729166666666665,1.1470571000008931,37.76226359999964,None,,,,,,,,,,,,,w,001,2020_Dec_01_1534,piloto1,2020.2.5,59.996604192319055,
1000,0.0,imagenes/Papas-naturales.jpg,0.37590629905521566,None,0,0,0,3,0,13,13,13,,,37.945589010000006,38.94591870000113,38.94591870000113,None,1.5729166666666665,1.537924700000076,38.94591870000113,None,,,,,,,,,,,,,w,001,2020_Dec_01_1534,piloto1,2020.2.5,59.996604192319055,
1000,0.0,imagenes/Brocoli.jpg,0.24293074945529525,None,0,0,0,3,0,14,14,21,,,39.51245700999989,40.51241560000017,40.51241560000017,None,1.5729166666666665,1.125544100001207,40.51241560000017,None,,,,,,,,,,,,,w,001,2020_Dec_01_1534,piloto1,2020.2.5,59.996604192319055,
1000,0.0,imagenes/Mango.jpeg,0.4341155418941499,None,0,0,0,3,0,15,15,10,,,40.6788928200007,41.67866260000119,41.662123000000065,None,1.5729166666666665,1.497315599999638,41.662123000000065,None,,,,,,,,,,,,,w,001,2020_Dec_01_1534,piloto1,2020.2.5,59.996604192319055,
1000,0.0,imagenes/Alpinito.jpg,0.7416150880621702,None,0,0,0,3,0,16,16,0,,,42.228668730000756,None,43.218888700001116,None,1.5729166666666665,1.2836408000002848,43.218888700001116,None,,,,,,,,,,,,,w,001,2020_Dec_01_1534,piloto1,2020.2.5,59.996604192319055,
1000,0.0,imagenes/Yogurt-alpina.jpg,0.5445152936222175,None,0,0,0,3,0,17,17,18,,,43.54537912000015,None,44.52904490000037,None,1.5729166666666665,1.4182581999994,44.52904490000037,None,,,,,,,,,,,,,w,001,2020_Dec_01_1534,piloto1,2020.2.5,59.996604192319055,
1000,0.0,imagenes/Nutella (1).jpg,0.8826531883338111,None,0,0,0,3,0,18,18,12,,,44.97864451000005,45.978650500001095,45.978650500001095,None,1.5729166666666665,1.5219906999991508,45.978650500001095,None,,,,,,,,,,,,,w,001,2020_Dec_01_1534,piloto1,2020.2.5,59.996604192319055,
1000,0.0,imagenes/Pescadito.png,0.7172825011486081,None,0,0,0,3,0,19,19,29,,,46.54531252000052,None,47.529565300001195,None,1.5729166666666665,1.5642232999998669,47.529565300001195,None,,,,,,,,,,,,,w,001,2020_Dec_01_1534,piloto1,2020.2.5,59.996604192319055,
1000,0.0,imagenes/Pandebono.png,0.8988574378129985,None,0,0,0,3,0,20,20,26,,,48.14524331999965,49.14548660000037,49.12872960000095,None,1.5729166666666665,1.4291049000003113,49.12872960000095,None,,,,,,,,,,,,,w,001,2020_Dec_01_1534,piloto1,2020.2.5,59.996604192319055,
1000,0.0,imagenes/Croissant.jpg,0.5824748589948932,None,0,0,0,3,0,21,21,5,,,49.61174952000002,50.611859200000254,50.611859200000254,None,1.5729166666666665,1.472337700000935,50.611859200000254,None,,,,,,,,,,,,,w,001,2020_Dec_01_1534,piloto1,2020.2.5,59.996604192319055,
1000,0.0,imagenes/Leche-de-almendras.jpg,0.3886559457994673,None,0,0,0,3,0,22,22,9,,,51.21185946999995,None,52.19467650000115,None,1.5729166666666665,1.4485471999996662,52.19467650000115,None,,,,,,,,,,,,,w,001,2020_Dec_01_1534,piloto1,2020.2.5,59.996604192319055,
1000,0.0,imagenes/Almojabanas.png,0.6725051200713246,None,0,0,0,3,0,23,23,20,,,52.71188762999973,None,53.69491689999995,None,1.5729166666666665,1.4323160999992979,53.69491689999995,None,,,,,,,,,,,,,w,001,2020_Dec_01_1534,piloto1,2020.2.5,59.996604192319055,
1000,0.0,imagenes/Manzana.jpg,0.4048420327008191,None,0,0,0,3,0,24,24,11,,,54.17830342000016,None,55.178353200000856,None,1.5729166666666665,1.506454099999246,55.178353200000856,None,,,,,,,,,,,,,w,001,2020_Dec_01_1534,piloto1,2020.2.5,59.996604192319055,
1000,0.0,imagenes/salchicha hojaldrada.jpg,0.7119773165481526,None,0,0,0,3,0,25,25,35,,,55.71147201000004,56.71124400000008,56.71124400000008,None,1.5729166666666665,1.8932863000009093,56.71124400000008,None,,,,,,,,,,,,,w,001,2020_Dec_01_1534,piloto1,2020.2.5,59.996604192319055,
1000,0.0,imagenes/Canelazo.png,0.6730479360767814,None,0,0,0,3,0,26,26,22,,,57.66141453000146,None,58.66145300000062,None,1.5729166666666665,1.5571404000002076,58.66145300000062,None,,,,,,,,,,,,,w,001,2020_Dec_01_1534,piloto1,2020.2.5,59.996604192319055,
1000,0.0,imagenes/Papas-limon.jpg,0.5280798509093595,None,0,0,0,3,0,27,27,14,,,59.24495720999967,60.244929800001046,60.244929800001046,None,1.5729166666666665,1.605776300000798,60.244929800001046,None,,,,,,,,,,,,,w,001,2020_Dec_01_1534,piloto1,2020.2.5,59.996604192319055,
1000,0.0,imagenes/Rosquitas (1).jpg,0.024090340010977873,None,0,0,0,3,0,28,28,17,,,60.89457992000135,61.894956100000854,61.894956100000854,None,1.5729166666666665,1.574541500000123,61.894956100000854,None,,,,,,,,,,,,,w,001,2020_Dec_01_1534,piloto1,2020.2.5,59.996604192319055,
1000,0.0,imagenes/Brownie.jpg,0.2838924074864093,None,0,0,0,3,0,29,29,3,,,62.528183630000605,None,63.510997999999745,None,1.5729166666666665,1.3997261999993498,63.510997999999745,None,,,,,,,,,,,,,w,001,2020_Dec_01_1534,piloto1,2020.2.5,59.996604192319055,
1000,0.0,imagenes/Banano.jpeg,0.2267656716538785,None,0,0,0,3,0,30,30,1,,,63.961265620001,None,64.94428030000017,None,1.5729166666666665,1.5678002999993623,64.94428030000017,None,,,,,,,,,,,,,w,001,2020_Dec_01_1534,piloto1,2020.2.5,59.996604192319055,
1000,0.0,imagenes/pistachos.jpg,0.7450869742741464,None,0,0,0,3,0,31,31,30,,,65.54425481000017,None,66.52769150000131,None,1.6640625,1.3970058000013523,66.52769150000131,None,,,,,,,,,,,,,w,001,2020_Dec_01_1534,piloto1,2020.2.5,59.996604192319055,
1000,0.0,imagenes/Rollo de queso.png,0.9201641182756888,None,0,0,0,3,0,32,32,33,,,66.97796942000096,67.97780090000015,67.97780090000015,None,1.7682291666666665,1.2569770999998582,67.97780090000015,None,,,,,,,,,,,,,w,001,2020_Dec_01_1534,piloto1,2020.2.5,59.996604192319055,
1000,0.0,imagenes/Uvas.jpg,0.4959291644143431,None,0,0,0,3,0,33,33,19,,,68.27792532000095,None,69.26080850000108,None,1.8333333333333335,1.0188072999990254,69.26080850000108,None,,,,,,,,,,,,,w,001,2020_Dec_01_1534,piloto1,2020.2.5,59.996604192319055,
1000,0.0,imagenes/Pepinillos.png,0.0038966441241518046,None,0,0,0,3,0,34,34,28,,,69.32768731999968,None,70.32780100000127,None,1.9895833333333335,1.4577518000005512,70.32780100000127,None,,,,,,,,,,,,,w,001,2020_Dec_01_1534,piloto1,2020.2.5,59.996604192319055,
1000,0.0,imagenes/Muffin de banano.png,0.9610615059009696,None,0,0,0,3,0,35,35,25,,,70.82751382000097,71.82745650000106,71.82745650000106,None,1.9895833333333335,1.1046307999986311,71.82745650000106,None,,,,,,,,,,,,,w,001,2020_Dec_01_1534,piloto1,2020.2.5,59.996604192319055,
1000,0.0,,,,0,0,0,3,,,,,,,,,,,,,,,,,,,,,,,,,,,w,001,2020_Dec_01_1534,piloto1,2020.2.5,59.996604192319055,
400,0.02,imagenes/Banano.jpeg,0.2267656716538785,None,0,1,1,0,0,0,0,1,,,71.97761292000033,72.9772694000003,72.9772694000003,None,1.9895833333333335,1.4060449999997218,72.9772694000003,None,,,,,,,,,,,,,w,001,2020_Dec_01_1534,piloto1,2020.2.5,59.996604192319055,
400,0.02,imagenes/Pizza.png,0.21192443516553439,None,0,1,1,0,0,1,1,31,,,73.42726002000055,None,74.41049070000008,None,1.9895833333333335,1.2847161999998207,74.41049070000008,None,,,,,,,,,,,,,w,001,2020_Dec_01_1534,piloto1,2020.2.5,59.996604192319055,
400,0.02,imagenes/pistachos.jpg,0.7450869742741464,None,0,1,1,0,0,2,2,30,,,74.72722821000043,None,75.71239340000102,None,1.9895833333333335,1.3801837999999407,75.71239340000102,None,,,,,,,,,,,,,w,001,2020_Dec_01_1534,piloto1,2020.2.5,59.996604192319055,
400,0.02,imagenes/Rollos de canela.png,0.2610974409574519,None,0,1,1,0,0,3,3,34,,,76.14369042000035,77.14387280000119,77.12710700000025,None,1.9895833333333335,1.3837002000000211,77.12710700000025,None,,,,,,,,,,,,,w,001,2020_Dec_01_1534,piloto1,2020.2.5,59.996604192319055,
400,0.02,imagenes/Brocoli.jpg,0.24293074945529525,None,0,1,1,0,0,4,4,21,,,77.5439171100008,78.5436694,78.5436694,None,1.9895833333333335,1.3592415999992227,78.5436694,None,,,,,,,,,,,,,w,001,2020_Dec_01_1534,piloto1,2020.2.5,59.996604192319055,
400,0.02,imagenes/Pandebono.png,0.8988574378129985,None,0,1,1,0,0,5,5,26,,,78.94365822,79.9438338,79.92717819999962,None,2.588541666666667,1.445752799998445,79.92717819999962,None,,,,,,,,,,,,,w,001,2020_Dec_01_1534,piloto1,2020.2.5,59.996604192319055,
400,0.02,imagenes/Brownie.jpg,0.2838924074864093,None,0,1,1,0,0,6,6,3,,,80.44397292999984,81.4435555,81.42729850000069,None,2.8815104166666665,1.2823826000003464,81.42729850000069,None,,,,,,,,,,,,,w,001,2020_Dec_01_1534,piloto1,2020.2.5,59.996604192319055,
400,0.02,imagenes/bon-bon-bun.jpg,0.7417452724056987,None,0,1,1,0,0,7,7,2,,,81.77695573000038,None,82.76047470000049,None,3.16796875,1.21328689999973,82.76047470000049,None,,,,,,,,,,,,,w,001,2020_Dec_01_1534,piloto1,2020.2.5,59.996604192319055,
400,0.02,imagenes/Papas-pollo.jpg,0.08373485417902837,None,0,1,1,0,0,8,8,15,,,83.01030921000002,84.01024150000012,84.01024150000012,None,3.421875,1.3728754999992816,84.01024150000012,None,,,,,,,,,,,,,w,001,2020_Dec_01_1534,piloto1,2020.2.5,59.996604192319055,
400,0.02,imagenes/Kiwi.jpg,0.3929145850942286,None,0,1,1,0,0,9,9,8,,,84.41006521000072,None,85.4101812000008,None,2.673177083333333,1.3768097999982274,85.4101812000008,None,,,,,,,,,,,,,w,001,2020_Dec_01_1534,piloto1,2020.2.5,59.996604192319055,
400,0.02,imagenes/Pescadito.png,0.7172825011486081,None,0,1,1,0,0,10,10,29,,,85.82675132000114,None,86.81038079999962,None,2.529947916666667,1.2638803999998345,86.81038079999962,None,,,,,,,,,,,,,w,001,2020_Dec_01_1534,piloto1,2020.2.5,59.996604192319055,
400,0.02,imagenes/salchicha hojaldrada.jpg,0.7119773165481526,None,0,1,1,0,0,11,11,35,,,87.11030621000118,88.11004710000088,88.0932542999999,None,2.66015625,1.3130264000010357,88.0932542999999,None,,,,,,,,,,,,,w,001,2020_Dec_01_1534,piloto1,2020.2.5,59.996604192319055,
400,0.02,imagenes/Chontaduro.png,0.8693553300418813,None,0,1,1,0,0,12,12,23,,,88.44326811000083,89.44317440000123,89.44317440000123,None,2.66015625,1.2702362999989418,89.44317440000123,None,,,,,,,,,,,,,w,001,2020_Dec_01_1534,piloto1,2020.2.5,59.996604192319055,
400,0.02,imagenes/Uvas.jpg,0.4959291644143431,None,0,1,1,0,0,13,13,19,,,89.75999042000004,None,90.74365070000022,None,2.321614583333333,1.2353543999997783,90.74365070000022,None,,,,,,,,,,,,,w,001,2020_Dec_01_1534,piloto1,2020.2.5,59.996604192319055,
400,0.02,imagenes/Pepinillos.png,0.0038966441241518046,None,0,1,1,0,0,14,14,28,,,91.02664362000033,None,92.01240119999966,None,2.321614583333333,1.460935300001438,92.01240119999966,None,,,,,,,,,,,,,w,001,2020_Dec_01_1534,piloto1,2020.2.5,59.996604192319055,
400,0.02,imagenes/Galletas Tosh.jpg,0.9129693753280027,None,0,1,1,0,0,15,15,6,,,92.52622121999994,None,93.50986970000122,None,2.321614583333333,1.332984700000452,93.50986970000122,None,,,,,,,,,,,,,w,001,2020_Dec_01_1534,piloto1,2020.2.5,59.996604192319055,
400,0.02,imagenes/Chocoramo.jfif.jpg,0.7425528559884101,None,0,1,1,0,0,16,16,4,,,93.9097757300011,94.9099569000009,94.9099569000009,None,2.321614583333333,1.3743503000005148,94.9099569000009,None,,,,,,,,,,,,,w,001,2020_Dec_01_1534,piloto1,2020.2.5,59.996604192319055,
400,0.02,imagenes/Pizzetas.png,0.3295951589873042,None,0,1,1,0,0,17,17,32,,,95.32660892000095,None,96.30965690000085,None,2.321614583333333,1.245818600000348,96.30965690000085,None,,,,,,,,,,,,,w,001,2020_Dec_01_1534,piloto1,2020.2.5,59.996604192319055,
400,0.02,imagenes/Yogurt-alpina.jpg,0.5445152936222175,None,0,1,1,0,0,18,18,18,,,96.60995002000018,None,97.59309550000035,None,2.321614583333333,1.2514424999990297,97.59309550000035,None,,,,,,,,,,,,,w,001,2020_Dec_01_1534,piloto1,2020.2.5,59.996604192319055,
400,0.02,imagenes/Almojabanas.png,0.6725051200713246,None,0,1,1,0,0,19,19,20,,,97.8928531200003,98.89275120000093,98.89275120000093,None,2.321614583333333,1.1540748000006715,98.89275120000093,None,,,,,,,,,,,,,w,001,2020_Dec_01_1534,piloto1,2020.2.5,59.996604192319055,
400,0.02,imagenes/Rosquitas (1).jpg,0.024090340010977873,None,0,1,1,0,0,20,20,17,,,99.10933042999987,None,100.07636640000055,None,2.321614583333333,1.2362284999999247,100.07636640000055,None,,,,,,,,,,,,,w,001,2020_Dec_01_1534,piloto1,2020.2.5,59.996604192319055,
400,0.02,imagenes/Coliflor.jpg,0.3640740491088985,None,0,1,1,0,0,21,21,24,,,100.3595111100005,101.35961429999952,101.35961429999952,None,2.1848958333333335,1.3534087000007275,101.35961429999952,None,,,,,,,,,,,,,w,001,2020_Dec_01_1534,piloto1,2020.2.5,59.996604192319055,
400,0.02,imagenes/Nutella (1).jpg,0.8826531883338111,None,0,1,1,0,0,22,22,12,,,101.74276771000059,102.7427598000013,102.7427598000013,None,2.569010416666667,2.0061737000014546,102.7427598000013,None,,,,,,,,,,,,,w,001,2020_Dec_01_1534,piloto1,2020.2.5,59.996604192319055,
400,0.02,imagenes/Canelazo.png,0.6730479360767814,None,0,1,1,0,0,23,23,22,,,103.82582274000087,None,104.80998910000017,None,3.2135416666666665,1.1173736000000645,104.80998910000017,None,,,,,,,,,,,,,w,001,2020_Dec_01_1534,piloto1,2020.2.5,59.996604192319055,
400,0.02,imagenes/Rollo de queso.png,0.9201641182756888,None,0,1,1,0,0,24,24,33,,,104.97612531999985,105.97587420000127,105.95898020000095,None,2.725260416666667,1.2139948999993067,105.95898020000095,None,,,,,,,,,,,,,w,001,2020_Dec_01_1534,piloto1,2020.2.5,59.996604192319055,
400,0.02,imagenes/Muffin de banano.png,0.9610615059009696,None,0,1,1,0,0,25,25,25,,,106.25936974000142,None,107.2421919999997,None,2.393229166666667,1.3143186999986938,107.2421919999997,None,,,,,,,,,,,,,w,001,2020_Dec_01_1534,piloto1,2020.2.5,59.996604192319055,
400,0.02,imagenes/Popetas.jpg,0.9621625733302204,None,0,1,1,0,0,26,26,16,,,107.62569363000021,108.62565340000037,108.60887139999977,None,2.354166666666667,1.2784988999992493,108.60887139999977,None,,,,,,,,,,,,,w,001,2020_Dec_01_1534,piloto1,2020.2.5,59.996604192319055,
400,0.02,imagenes/Leche-de-almendras.jpg,0.3886559457994673,None,0,1,1,0,0,27,27,9,,,109.02583816999996,110.02565529999993,110.02565529999993,None,2.9466145833333335,1.190389999999752,110.02565529999993,None,,,,,,,,,,,,,w,001,2020_Dec_01_1534,piloto1,2020.2.5,59.996604192319055,
400,0.02,imagenes/Croissant.jpg,0.5824748589948932,None,0,1,1,0,0,28,28,5,,,110.2591950200007,111.25865150000027,111.25865150000027,None,3.3958333333333335,1.1590529000004608,111.25865150000027,None,,,,,,,,,,,,,w,001,2020_Dec_01_1534,piloto1,2020.2.5,59.996604192319055,
400,0.02,imagenes/Mango.jpeg,0.4341155418941499,None,0,1,1,0,0,29,29,10,,,111.45918052000016,None,112.44211560000076,None,3.721354166666667,1.4314974000008078,112.44211560000076,None,,,,,,,,,,,,,w,001,2020_Dec_01_1534,piloto1,2020.2.5,59.996604192319055,
400,0.02,imagenes/Papas picantes.jpg,0.524978898672612,None,0,1,1,0,0,30,30,27,,,112.90890521000092,None,113.89205840000068,None,3.727864583333333,1.545553400001154,113.89205840000068,None,,,,,,,,,,,,,w,001,2020_Dec_01_1534,piloto1,2020.2.5,59.996604192319055,
400,0.02,imagenes/Papas-limon.jpg,0.5280798509093595,None,0,1,1,0,0,31,31,14,,,114.47521851000074,115.47575959999995,115.47575959999995,None,3.727864583333333,1.6057461999989755,115.47575959999995,None,,,,,,,,,,,,,w,001,2020_Dec_01_1534,piloto1,2020.2.5,59.996604192319055,
400,0.02,imagenes/Manzana.jpg,0.4048420327008191,None,0,1,1,0,0,32,32,11,,,116.12543211999983,117.12558900000113,117.12558900000113,None,4.268229166666667,1.273059099999955,117.12558900000113,None,,,,,,,,,,,,,w,001,2020_Dec_01_1534,piloto1,2020.2.5,59.996604192319055,
400,0.02,imagenes/Galletas-festival.jpg,0.11306074364032936,None,0,1,1,0,0,33,33,7,,,117.4417939199997,None,118.42508710000038,None,3.3111979166666665,1.284504699999161,118.42508710000038,None,,,,,,,,,,,,,w,001,2020_Dec_01_1534,piloto1,2020.2.5,59.996604192319055,
400,0.02,imagenes/Alpinito.jpg,0.7416150880621702,None,0,1,1,0,0,34,34,0,,,118.77517463000059,None,119.7586695000009,None,2.471354166666667,1.1856635000003735,119.7586695000009,None,,,,,,,,,,,,,w,001,2020_Dec_01_1534,piloto1,2020.2.5,59.996604192319055,
400,0.02,imagenes/Papas-naturales.jpg,0.37590629905521566,None,0,1,1,0,0,35,35,13,,,119.97514691000124,None,120.97540070000105,None,2.9205729166666665,1.3054355000003852,120.97540070000105,None,,,,,,,,,,,,,w,001,2020_Dec_01_1534,piloto1,2020.2.5,59.996604192319055,
400,0.02,,,,0,1,1,0,,,,,,,,,,,,,,,,,,,,,,,,,,,w,001,2020_Dec_01_1534,piloto1,2020.2.5,59.996604192319055,
1000,0.02,imagenes/bon-bon-bun.jpg,0.7417452724056987,None,0,2,2,2,0,0,0,2,,,121.34176073000036,122.34166360000017,122.3249667,None,3.3958333333333335,1.3463289000010263,122.3249667,None,,,,,,,,,,,,,w,001,2020_Dec_01_1534,piloto1,2020.2.5,59.996604192319055,
1000,0.02,imagenes/Uvas.jpg,0.4959291644143431,None,0,2,2,2,0,1,1,19,,,122.72488052000008,None,123.70862400000078,None,3.649739583333333,1.3177935000003345,123.70862400000078,None,,,,,,,,,,,,,w,001,2020_Dec_01_1534,piloto1,2020.2.5,59.996604192319055,
1000,0.02,imagenes/Rollos de canela.png,0.2610974409574519,None,0,2,2,2,0,2,2,34,,,124.07491002000134,None,125.05864079999992,None,2.848958333333333,1.3506287000000157,125.05864079999992,None,,,,,,,,,,,,,w,001,2020_Dec_01_1534,piloto1,2020.2.5,59.996604192319055,
1000,0.02,imagenes/Pepinillos.png,0.0038966441241518046,None,0,2,2,2,0,3,3,28,,,125.45815022000025,126.45854150000014,126.45854150000014,None,2.653645833333333,1.3071047000012186,126.45854150000014,None,,,,,,,,,,,,,w,001,2020_Dec_01_1534,piloto1,2020.2.5,59.996604192319055,
1000,0.02,imagenes/Rollo de queso.png,0.9201641182756888,None,0,2,2,2,0,4,4,33,,,126.80841062000073,127.80839709999964,127.80839709999964,None,2.9661458333333335,1.3724603000009665,127.80839709999964,None,,,,,,,,,,,,,w,001,2020_Dec_01_1534,piloto1,2020.2.5,59.996604192319055,
1000,0.02,imagenes/Banano.jpeg,0.2267656716538785,None,0,2,2,2,0,5,5,1,,,128.22459092000133,None,129.21005400000104,None,3.1875,1.184794000000693,129.21005400000104,None,,,,,,,,,,,,,w,001,2020_Dec_01_1534,piloto1,2020.2.5,59.996604192319055,
1000,0.02,imagenes/Almojabanas.png,0.6725051200713246,None,0,2,2,2,0,6,6,20,,,129.4580670300007,None,130.4924798000011,None,3.604166666666667,1.7130512000003364,130.4924798000011,None,,,,,,,,,,,,,w,001,2020_Dec_01_1534,piloto1,2020.2.5,59.996604192319055,
1000,0.02,imagenes/Coliflor.jpg,0.3640740491088985,None,0,2,2,2,0,7,7,24,,,131.21000472000048,132.20882780000102,132.19235800000024,None,3.955729166666667,1.2347619000011036,132.19235800000024,None,,,,,,,,,,,,,w,001,2020_Dec_01_1534,piloto1,2020.2.5,59.996604192319055,
1000,0.02,imagenes/Alpinito.jpg,0.7416150880621702,None,0,2,2,2,0,8,8,0,,,132.49194813000085,None,133.4761049000008,None,4.268229166666667,1.4175842000004195,133.4761049000008,None,,,,,,,,,,,,,w,001,2020_Dec_01_1534,piloto1,2020.2.5,59.996604192319055,
1000,0.02,imagenes/Nutella (1).jpg,0.8826531883338111,None,0,2,2,2,0,9,9,12,,,133.9260896100006,134.9258105000008,134.9258105000008,None,3.6171875,1.3531895000014629,134.9258105000008,None,,,,,,,,,,,,,w,001,2020_Dec_01_1534,piloto1,2020.2.5,59.996604192319055,
1000,0.02,imagenes/Pandebono.png,0.8988574378129985,None,0,2,2,2,0,10,10,26,,,135.3254941199997,None,136.31319079999957,None,3.421875,1.462103500000012,136.31319079999957,None,,,,,,,,,,,,,w,001,2020_Dec_01_1534,piloto1,2020.2.5,59.996604192319055,
1000,0.02,imagenes/Kiwi.jpg,0.3929145850942286,None,0,2,2,2,0,11,11,8,,,136.8097625100001,None,137.8075626000009,None,3.3177083333333335,1.389882800000123,137.8075626000009,None,,,,,,,,,,,,,w,001,2020_Dec_01_1534,piloto1,2020.2.5,59.996604192319055,
1000,0.02,imagenes/Chocoramo.jfif.jpg,0.7425528559884101,None,0,2,2,2,0,12,12,4,,,138.24095522000096,139.2407604,139.2407604,None,3.1419270833333335,1.3547051999994437,139.2407604,None,,,,,,,,,,,,,w,001,2020_Dec_01_1534,piloto1,2020.2.5,59.996604192319055,
1000,0.02,imagenes/Papas-pollo.jpg,0.08373485417902837,None,0,2,2,2,0,13,13,15,,,139.6244468099996,140.62410790000104,140.62410790000104,None,2.647135416666667,1.2725035000003118,140.62410790000104,None,,,,,,,,,,,,,w,001,2020_Dec_01_1534,piloto1,2020.2.5,59.996604192319055,
1000,0.02,imagenes/Canelazo.png,0.6730479360767814,None,0,2,2,2,0,14,14,22,,,140.97413354000017,141.97418310000103,141.9575619999996,None,3.28515625,1.215795900001467,141.9575619999996,None,,,,,,,,,,,,,w,001,2020_Dec_01_1534,piloto1,2020.2.5,59.996604192319055,
1000,0.02,imagenes/Popetas.jpg,0.9621625733302204,None,0,2,2,2,0,15,15,16,,,142.25715754000046,None,143.24048980000043,None,3.4088541666666665,1.348893299998963,143.24048980000043,None,,,,,,,,,,,,,w,001,2020_Dec_01_1534,piloto1,2020.2.5,59.996604192319055,
1000,0.02,imagenes/Rosquitas (1).jpg,0.024090340010977873,None,0,2,2,2,0,16,16,17,,,143.6410031199997,144.6405766000007,144.6405766000007,None,3.864583333333333,1.153563199999553,144.6405766000007,None,,,,,,,,,,,,,w,001,2020_Dec_01_1534,piloto1,2020.2.5,59.996604192319055,
1000,0.02,imagenes/Papas picantes.jpg,0.524978898672612,None,0,2,2,2,0,17,17,27,,,144.82389001000064,145.82411239999965,145.80773469999986,None,4.092447916666667,1.3290935000004538,145.80773469999986,None,,,,,,,,,,,,,w,001,2020_Dec_01_1534,piloto1,2020.2.5,59.996604192319055,
1000,0.02,imagenes/Brocoli.jpg,0.24293074945529525,None,0,2,2,2,0,18,18,21,,,146.17427341000092,147.17361019999953,147.17361019999953,None,3.3111979166666665,1.2096854000010353,147.17361019999953,None,,,,,,,,,,,,,w,001,2020_Dec_01_1534,piloto1,2020.2.5,59.996604192319055,
1000,0.02,imagenes/Brownie.jpg,0.2838924074864093,None,0,2,2,2,0,19,19,3,,,147.4404405299998,None,148.42361449999953,None,3.955729166666667,1.3324236999997083,148.42361449999953,None,,,,,,,,,,,,,w,001,2020_Dec_01_1534,piloto1,2020.2.5,59.996604192319055,
1000,0.02,imagenes/salchicha hojaldrada.jpg,0.7119773165481526,None,0,2,2,2,0,20,20,35,,,148.79055941000132,149.79039990000092,149.77373559999978,None,3.513020833333333,1.1304388000007748,149.77373559999978,None,,,,,,,,,,,,,w,001,2020_Dec_01_1534,piloto1,2020.2.5,59.996604192319055,
1000,0.02,imagenes/Pescadito.png,0.7172825011486081,None,0,2,2,2,0,21,21,29,,,149.95700502000034,None,150.9428552999998,None,3.1419270833333335,1.214402899999186,150.9428552999998,None,,,,,,,,,,,,,w,001,2020_Dec_01_1534,piloto1,2020.2.5,59.996604192319055,
1000,0.02,imagenes/Papas-limon.jpg,0.5280798509093595,None,0,2,2,2,0,22,22,14,,,151.19032041000008,152.19062900000063,152.19062900000063,None,2.9401041666666665,1.2712756000000809,152.19062900000063,None,,,,,,,,,,,,,w,001,2020_Dec_01_1534,piloto1,2020.2.5,59.996604192319055,
1000,0.02,imagenes/Manzana.jpg,0.4048420327008191,None,0,2,2,2,0,23,23,11,,,152.50694782000062,153.5067325,153.5067325,None,2.608072916666667,1.124980399999913,153.5067325,None,,,,,,,,,,,,,w,001,2020_Dec_01_1534,piloto1,2020.2.5,59.996604192319055,
1000,0.02,imagenes/Pizzetas.png,0.3295951589873042,None,0,2,2,2,0,24,24,32,,,153.67342122000116,154.673600600001,154.673600600001,None,3.5390625,1.2391182999999728,154.673600600001,None,,,,,,,,,,,,,w,001,2020_Dec_01_1534,piloto1,2020.2.5,59.996604192319055,
1000,0.02,imagenes/Galletas Tosh.jpg,0.9129693753280027,None,0,2,2,2,0,25,25,6,,,154.9735578300011,None,155.95672230000127,None,4.0078125,1.1794066000002204,155.95672230000127,None,,,,,,,,,,,,,w,001,2020_Dec_01_1534,piloto1,2020.2.5,59.996604192319055,
1000,0.02,imagenes/Muffin de banano.png,0.9610615059009696,None,0,2,2,2,0,26,26,25,,,156.2236554400013,None,157.20639819999997,None,3.2916666666666665,1.2016247999999905,157.20639819999997,None,,,,,,,,,,,,,w,001,2020_Dec_01_1534,piloto1,2020.2.5,59.996604192319055,
1000,0.02,imagenes/Mango.jpeg,0.4341155418941499,None,0,2,2,2,0,27,27,10,,,157.45698722000122,None,158.4400671000003,None,3.05078125,1.2646955999989586,158.4400671000003,None,,,,,,,,,,,,,w,001,2020_Dec_01_1534,piloto1,2020.2.5,59.996604192319055,
1000,0.02,imagenes/Galletas-festival.jpg,0.11306074364032936,None,0,2,2,2,0,28,28,7,,,158.7567702199998,None,159.7403617,None,2.6796875,1.261526899999808,159.7403617,None,,,,,,,,,,,,,w,001,2020_Dec_01_1534,piloto1,2020.2.5,59.996604192319055,
1000,0.02,imagenes/Yogurt-alpina.jpg,0.5445152936222175,None,0,2,2,2,0,29,29,18,,,160.05666962000066,161.05670980000104,161.0396978000008,None,2.25,1.1519590000007156,161.0396978000008,None,,,,,,,,,,,,,w,001,2020_Dec_01_1534,piloto1,2020.2.5,59.996604192319055,
1000,0.02,imagenes/Papas-naturales.jpg,0.37590629905521566,None,0,2,2,2,0,30,30,13,,,161.22316121000057,162.22329139999965,162.22329139999965,None,3.6171875,1.2387421000003087,162.22329139999965,None,,,,,,,,,,,,,w,001,2020_Dec_01_1534,piloto1,2020.2.5,59.996604192319055,
1000,0.02,imagenes/Chontaduro.png,0.8693553300418813,None,0,2,2,2,0,31,31,23,,,162.48996771000037,163.48985040000116,163.48985040000116,None,3.2330729166666665,1.2872633999995742,163.48985040000116,None,,,,,,,,,,,,,w,001,2020_Dec_01_1534,piloto1,2020.2.5,59.996604192319055,
1000,0.02,imagenes/Leche-de-almendras.jpg,0.3886559457994673,None,0,2,2,2,0,32,32,9,,,163.88974565999996,164.88941999999952,164.88941999999952,None,2.85546875,1.0536480999999185,164.88941999999952,None,,,,,,,,,,,,,w,001,2020_Dec_01_1534,piloto1,2020.2.5,59.996604192319055,
1000,0.02,imagenes/pistachos.jpg,0.7450869742741464,None,0,2,2,2,0,33,33,30,,,164.97307861000098,165.97326179999982,165.95620880000024,None,3.5390625,1.2799135000004753,165.95620880000024,None,,,,,,,,,,,,,w,001,2020_Dec_01_1534,piloto1,2020.2.5,59.996604192319055,
1000,0.02,imagenes/Croissant.jpg,0.5824748589948932,None,0,2,2,2,0,34,34,5,,,166.30662403000005,167.30637130000105,167.28974910000034,None,3.8125,1.1823724999994738,167.28974910000034,None,,,,,,,,,,,,,w,001,2020_Dec_01_1534,piloto1,2020.2.5,59.996604192319055,
1000,0.02,imagenes/Pizza.png,0.21192443516553439,None,0,2,2,2,0,35,35,31,,,167.52288242000066,None,168.5063564000011,None,3.708333333333333,1.1854762000002665,168.5063564000011,None,,,,,,,,,,,,,w,001,2020_Dec_01_1534,piloto1,2020.2.5,59.996604192319055,
1000,0.02,,,,0,2,2,2,,,,,,,,,,,,,,,,,,,,,,,,,,,w,001,2020_Dec_01_1534,piloto1,2020.2.5,59.996604192319055,
1500,0.02,imagenes/salchicha hojaldrada.jpg,0.7119773165481526,None,0,3,3,1,0,0,0,35,,,168.73963432000016,None,169.72272689999954,None,3.4869791666666665,1.333152200000768,169.72272689999954,None,,,,,,,,,,,,,w,001,2020_Dec_01_1534,piloto1,2020.2.5,59.996604192319055,
1500,0.02,imagenes/Chontaduro.png,0.8693553300418813,None,0,3,3,1,0,1,1,23,,,170.08950101000136,None,171.08958800000073,None,2.58203125,1.237241199998607,171.08958800000073,None,,,,,,,,,,,,,w,001,2020_Dec_01_1534,piloto1,2020.2.5,59.996604192319055,
1500,0.02,imagenes/Pescadito.png,0.7172825011486081,None,0,3,3,1,0,2,2,29,,,171.3727293200012,172.37300570000116,172.3564148000005,None,3.5390625,1.2282326000004105,172.3564148000005,None,,,,,,,,,,,,,w,001,2020_Dec_01_1534,piloto1,2020.2.5,59.996604192319055,
1500,0.02,imagenes/Galletas-festival.jpg,0.11306074364032936,None,0,3,3,1,0,3,3,7,,,172.62692681999977,None,173.6058825,None,4.06640625,1.1798650000000634,173.6058825,None,,,,,,,,,,,,,w,001,2020_Dec_01_1534,piloto1,2020.2.5,59.996604192319055,
1500,0.02,imagenes/bon-bon-bun.jpg,0.7417452724056987,None,0,3,3,1,0,4,4,2,,,173.83920161999993,174.83892930000002,174.83892930000002,None,3.5390625,1.2438158000004478,174.83892930000002,None,,,,,,,,,,,,,w,001,2020_Dec_01_1534,piloto1,2020.2.5,59.996604192319055,
1500,0.02,imagenes/Manzana.jpg,0.4048420327008191,None,0,3,3,1,0,5,5,11,,,175.12246402000017,176.1224968000006,176.1224968000006,None,3.0572916666666665,1.2544517000005726,176.1224968000006,None,,,,,,,,,,,,,w,001,2020_Dec_01_1534,piloto1,2020.2.5,59.996604192319055,
1500,0.02,imagenes/Alpinito.jpg,0.7416150880621702,None,0,3,3,1,0,6,6,0,,,176.43891393000067,177.43935340000098,177.43935340000098,None,3.71484375,1.2582899000008183,177.43935340000098,None,,,,,,,,,,,,,w,001,2020_Dec_01_1534,piloto1,2020.2.5,59.996604192319055,
1500,0.02,imagenes/Galletas Tosh.jpg,0.9129693753280027,None,0,3,3,1,0,7,7,6,,,177.75599562999977,178.7557641000003,178.73986540000078,None,4.046875,1.2452496999994764,178.73986540000078,None,,,,,,,,,,,,,w,001,2020_Dec_01_1534,piloto1,2020.2.5,59.996604192319055,
1500,0.02,imagenes/Pepinillos.png,0.0038966441241518046,None,0,3,3,1,0,8,8,28,,,179.0559880300012,180.05583360000128,180.0391649000012,None,4.046875,1.234419100001105,180.0391649000012,None,,,,,,,,,,,,,w,001,2020_Dec_01_1534,piloto1,2020.2.5,59.996604192319055,
1500,0.02,imagenes/Papas-naturales.jpg,0.37590629905521566,None,0,3,3,1,0,9,9,13,,,180.30536271,181.30585820000124,181.30585820000124,None,3.3763020833333335,1.2561382000003505,181.30585820000124,None,,,,,,,,,,,,,w,001,2020_Dec_01_1534,piloto1,2020.2.5,59.996604192319055,
1500,0.02,imagenes/Papas-limon.jpg,0.5280798509093595,None,0,3,3,1,0,10,10,14,,,181.58895241000045,182.58865400000104,182.58865400000104,None,2.9921875,1.2572460000010324,182.58865400000104,None,,,,,,,,,,,,,w,001,2020_Dec_01_1534,piloto1,2020.2.5,59.996604192319055,
1500,0.02,imagenes/Kiwi.jpg,0.3929145850942286,None,0,3,3,1,0,11,11,8,,,182.87244330999982,183.87221060000047,183.87221060000047,None,3.884114583333333,1.2911862000000838,183.87221060000047,None,,,,,,,,,,,,,w,001,2020_Dec_01_1534,piloto1,2020.2.5,59.996604192319055,
1500,0.02,imagenes/Rollos de canela.png,0.2610974409574519,None,0,3,3,1,0,12,12,34,,,184.1887664099997,185.1890237000007,185.1890237000007,None,3.643229166666667,1.2723982999996224,185.1890237000007,None,,,,,,,,,,,,,w,001,2020_Dec_01_1534,piloto1,2020.2.5,59.996604192319055,
1500,0.02,imagenes/Mango.jpeg,0.4341155418941499,None,0,3,3,1,0,13,13,10,,,185.50520992000054,None,186.48992440000075,None,3.36328125,1.1992725000000064,186.48992440000075,None,,,,,,,,,,,,,w,001,2020_Dec_01_1534,piloto1,2020.2.5,59.996604192319055,
1500,0.02,imagenes/Muffin de banano.png,0.9610615059009696,None,0,3,3,1,0,14,14,25,,,186.75564223000092,None,187.73878350000086,None,2.9075520833333335,1.2164317999995546,187.73878350000086,None,,,,,,,,,,,,,w,001,2020_Dec_01_1534,piloto1,2020.2.5,59.996604192319055,
1500,0.02,imagenes/Pandebono.png,0.8988574378129985,None,0,3,3,1,0,15,15,26,,,188.00517262000028,189.00552659999994,189.00552659999994,None,3.819010416666667,1.2048310000009224,189.00552659999994,None,,,,,,,,,,,,,w,001,2020_Dec_01_1534,piloto1,2020.2.5,59.996604192319055,
1500,0.02,imagenes/pistachos.jpg,0.7450869742741464,None,0,3,3,1,0,16,16,30,,,189.23872221000073,None,190.22172280000086,None,3.4609375,1.262619099999938,190.22172280000086,None,,,,,,,,,,,,,w,001,2020_Dec_01_1534,piloto1,2020.2.5,59.996604192319055,
1500,0.02,imagenes/Coliflor.jpg,0.3640740491088985,None,0,3,3,1,0,17,17,24,,,190.5217759099998,191.52174530000048,191.52174530000048,None,2.647135416666667,1.2695344999992813,191.52174530000048,None,,,,,,,,,,,,,w,001,2020_Dec_01_1534,piloto1,2020.2.5,59.996604192319055,
1500,0.02,imagenes/Uvas.jpg,0.4959291644143431,None,0,3,3,1,0,18,18,19,,,191.8385520200012,None,192.82188320000023,None,3.67578125,1.1028707999994367,192.82188320000023,None,,,,,,,,,,,,,w,001,2020_Dec_01_1534,piloto1,2020.2.5,59.996604192319055,
1500,0.02,imagenes/Nutella (1).jpg,0.8826531883338111,None,0,3,3,1,0,19,19,12,,,192.95529680999988,193.95523839999987,193.95523839999987,None,4.1640625,1.1382254000000103,193.95523839999987,None,,,,,,,,,,,,,w,001,2020_Dec_01_1534,piloto1,2020.2.5,59.996604192319055,
1500,0.02,imagenes/Chocoramo.jfif.jpg,0.7425528559884101,None,0,3,3,1,0,20,20,4,,,194.13847512000063,195.13814420000017,195.13814420000017,None,4.756510416666666,1.1713206000003993,195.13814420000017,None,,,,,,,,,,,,,w,001,2020_Dec_01_1534,piloto1,2020.2.5,59.996604192319055,
1500,0.02,imagenes/Pizza.png,0.21192443516553439,None,0,3,3,1,0,21,21,31,,,195.35479692000115,196.35480720000123,196.33830210000087,None,3.766927083333333,1.152792999999292,196.33830210000087,None,,,,,,,,,,,,,w,001,2020_Dec_01_1534,piloto1,2020.2.5,59.996604192319055,
1500,0.02,imagenes/Rollo de queso.png,0.9201641182756888,None,0,3,3,1,0,22,22,33,,,196.55470793000003,197.55511389999992,197.53825230000075,None,4.541666666666667,1.232486599999902,197.53825230000075,None,,,,,,,,,,,,,w,001,2020_Dec_01_1534,piloto1,2020.2.5,59.996604192319055,
1500,0.02,imagenes/Almojabanas.png,0.6725051200713246,None,0,3,3,1,0,23,23,20,,,197.82163312000046,198.8213523000013,198.8213523000013,None,4.287760416666667,1.3197484000011173,198.8213523000013,None,,,,,,,,,,,,,w,001,2020_Dec_01_1534,piloto1,2020.2.5,59.996604192319055,
1500,0.02,imagenes/Brownie.jpg,0.2838924074864093,None,0,3,3,1,0,24,24,3,,,199.204822530001,200.20461120000073,200.20461120000073,None,3.421875,2.5239328000006935,200.20461120000073,None,,,,,,,,,,,,,w,001,2020_Dec_01_1534,piloto1,2020.2.5,59.996604192319055,
1500,0.02,imagenes/Papas-pollo.jpg,0.08373485417902837,None,0,3,3,1,0,25,25,15,,,201.7547408100001,202.7545654000005,202.7545654000005,None,3.96875,1.4062878000004275,202.7545654000005,None,,,,,,,,,,,,,w,001,2020_Dec_01_1534,piloto1,2020.2.5,59.996604192319055,
1500,0.02,imagenes/Croissant.jpg,0.5824748589948932,None,0,3,3,1,0,26,26,5,,,203.20449082000084,204.20413259999987,204.20413259999987,None,4.704427083333333,1.2870192999998835,204.20413259999987,None,,,,,,,,,,,,,w,001,2020_Dec_01_1534,piloto1,2020.2.5,59.996604192319055,
1500,0.02,imagenes/Popetas.jpg,0.9621625733302204,None,0,3,3,1,0,27,27,16,,,204.57129714000146,None,205.57086909999998,None,4.671875,1.4258474999987811,205.57086909999998,None,,,,,,,,,,,,,w,001,2020_Dec_01_1534,piloto1,2020.2.5,59.996604192319055,
1500,0.02,imagenes/Leche-de-almendras.jpg,0.3886559457994673,None,0,3,3,1,0,28,28,9,,,206.1213688700003,None,207.1045653000001,None,3.506510416666667,1.200224199999866,207.1045653000001,None,,,,,,,,,,,,,w,001,2020_Dec_01_1534,piloto1,2020.2.5,59.996604192319055,
1500,0.02,imagenes/Rosquitas (1).jpg,0.024090340010977873,None,0,3,3,1,0,29,29,17,,,207.37099333000023,208.37084789999972,208.35438880000038,None,2.653645833333333,1.1791506999998091,208.35438880000038,None,,,,,,,,,,,,,w,001,2020_Dec_01_1534,piloto1,2020.2.5,59.996604192319055,
1500,0.02,imagenes/Canelazo.png,0.6730479360767814,None,0,3,3,1,0,30,30,22,,,208.62097994000104,None,209.60447550000026,None,3.708333333333333,1.1449254999988625,209.60447550000026,None,,,,,,,,,,,,,w,001,2020_Dec_01_1534,piloto1,2020.2.5,59.996604192319055,
1500,0.02,imagenes/Banano.jpeg,0.2267656716538785,None,0,3,3,1,0,31,31,1,,,209.80429012000093,210.80454660000032,210.787822100001,None,4.515625,1.1340326000008645,210.787822100001,None,,,,,,,,,,,,,w,001,2020_Dec_01_1534,piloto1,2020.2.5,59.996604192319055,
1500,0.02,imagenes/Brocoli.jpg,0.24293074945529525,None,0,3,3,1,0,32,32,21,,,210.95425881000136,211.95411419999982,211.95411419999982,None,3.578125,1.6772784999993746,211.95411419999982,None,,,,,,,,,,,,,w,001,2020_Dec_01_1534,piloto1,2020.2.5,59.996604192319055,
1500,0.02,imagenes/Pizzetas.png,0.3295951589873042,None,0,3,3,1,0,33,33,32,,,212.67069652000134,None,213.65421520000018,None,2.861979166666667,1.1462369999990187,213.65421520000018,None,,,,,,,,,,,,,w,001,2020_Dec_01_1534,piloto1,2020.2.5,59.996604192319055,
1500,0.02,imagenes/Papas picantes.jpg,0.524978898672612,None,0,3,3,1,0,34,34,27,,,213.8372830099999,None,214.82064230000105,None,3.897135416666667,1.1625223999999434,214.82064230000105,None,,,,,,,,,,,,,w,001,2020_Dec_01_1534,piloto1,2020.2.5,59.996604192319055,
1500,0.02,imagenes/Yogurt-alpina.jpg,0.5445152936222175,None,0,3,3,1,0,35,35,18,,,215.03764402000013,None,216.00385970000025,None,4.515625,1.1190705000008165,216.00385970000025,None,,,,,,,,,,,,,w,001,2020_Dec_01_1534,piloto1,2020.2.5,59.996604192319055,
1500,0.02,,,,0,3,3,1,,,,,,,,,,,,,,,,,,,,,,,,,,,w,001,2020_Dec_01_1534,piloto1,2020.2.5,59.996604192319055,
,,,,,,,,,,,,,,,,,,,,,,,216.17074950000097,None,217.1710615000011,None,218.2079446000007,None,219.25152960000014,None,220.27644099999998,None,222.2976789000004,None,,,,,,,
