Hertz,volumen,Imagenes,Random,Correcto,trials.thisRepN,trials.thisTrialN,trials.thisN,trials.thisIndex,trials_2.thisRepN,trials_2.thisTrialN,trials_2.thisN,trials_2.thisIndex,Sonido.started,Sonido.stopped,image_2.started,image_2.stopped,slider_2.response,slider_2.rt,slider_2.started,slider_2.stopped,participant,session,date,expName,psychopyVersion,frameRate,
1000,0.0,imagenes\Papas-naturales.jpg,0.15856838916280946,None,0,0,0,3,0,0,0,13,12.289496219996362,None,12.332503799989354,None,None,None,12.332503799989354,None,w,001,2020_Oct_06_1112,piloto1,2020.2.3,59.880454656277315,
1000,0.0,imagenes\Rosquitas (1).jpg,0.3035383390851263,None,0,0,0,3,0,1,1,17,13.272792759985895,None,13.268609499995364,None,None,None,13.268609499995364,None,w,001,2020_Oct_06_1112,piloto1,2020.2.3,59.880454656277315,
1000,0.0,imagenes\Manzana.jpg,0.5168162194437935,None,0,0,0,3,0,2,2,11,14.272751059988513,14.286811800004216,14.279396600002656,None,3.4544270833333335,0.17086859999108128,14.279396600002656,None,w,001,2020_Oct_06_1112,piloto1,2020.2.3,59.880454656277315,
1000,0.0,imagenes\Chocoramo.jfif.jpg,0.7789437122019539,None,0,0,0,3,0,3,3,4,14.589368980011203,None,14.593168399995193,None,3.4544270833333335,0.1326423000136856,14.593168399995193,None,w,001,2020_Oct_06_1112,piloto1,2020.2.3,59.880454656277315,
1000,0.0,imagenes\Croissant.jpg,0.6152458173421255,None,0,0,0,3,0,4,4,5,14.755551819998072,None,14.75182199999108,None,3.4544270833333335,0.1305718999938108,14.75182199999108,None,w,001,2020_Oct_06_1112,piloto1,2020.2.3,59.880454656277315,
1000,0.0,imagenes\Uvas.jpg,0.7734382152670648,None,0,0,0,3,0,5,5,19,14.955904840002768,14.972336300008465,14.96394399998826,None,3.4544270833333335,0.07096439998713322,14.96394399998826,None,w,001,2020_Oct_06_1112,piloto1,2020.2.3,59.880454656277315,
1000,0.0,imagenes\Brownie.jpg,0.17000143351927688,None,0,0,0,3,0,6,6,3,15.139007560000755,None,15.133328800002346,None,3.4544270833333335,0.06807300000218675,15.133328800002346,None,w,001,2020_Oct_06_1112,piloto1,2020.2.3,59.880454656277315,
1000,0.0,imagenes\Alpinito.jpg,0.4515332417045813,None,0,0,0,3,0,7,7,0,15.35631713999319,15.351692299998831,15.346543599996949,None,3.4544270833333335,0.4197784000134561,15.346543599996949,None,w,001,2020_Oct_06_1112,piloto1,2020.2.3,59.880454656277315,
1000,0.0,imagenes\Kiwi.jpg,0.5893907384852061,None,0,0,0,3,0,8,8,8,15.822773979988414,15.830085299996426,15.822985800012248,None,3.4544270833333335,0.32830040002590977,15.822985800012248,None,w,001,2020_Oct_06_1112,piloto1,2020.2.3,59.880454656277315,
1000,0.0,imagenes\Galletas-festival.jpg,0.36121121246191135,None,0,0,0,3,0,9,9,7,16.23961849999614,16.24864289999823,16.241448399989167,None,3.4544270833333335,0.09372000000439584,16.241448399989167,None,w,001,2020_Oct_06_1112,piloto1,2020.2.3,59.880454656277315,
1000,0.0,imagenes\Nutella (1).jpg,0.5277483225747329,None,0,0,0,3,0,10,10,12,16.405727840005422,16.408247199986363,16.400719299999764,None,3.4544270833333335,0.2846553999988828,16.400719299999764,None,w,001,2020_Oct_06_1112,piloto1,2020.2.3,59.880454656277315,
1000,0.0,imagenes\Yogurt-alpina.jpg,0.21540995091807813,None,0,0,0,3,0,11,11,18,16.77241169998888,None,16.782840300002135,None,3.4544270833333335,0.07286610000301152,16.782840300002135,None,w,001,2020_Oct_06_1112,piloto1,2020.2.3,59.880454656277315,
1000,0.0,imagenes\Banano.jpeg,0.651633055306917,None,0,0,0,3,0,12,12,1,16.922396440006562,None,16.935482100001536,None,3.4544270833333335,0.07265990000450984,16.935482100001536,None,w,001,2020_Oct_06_1112,piloto1,2020.2.3,59.880454656277315,
1000,0.0,imagenes\Papas-limon.jpg,0.020692288100133793,None,0,0,0,3,0,13,13,14,17.034983320004542,None,17.044518000009703,None,3.4544270833333335,0.11354399999254383,17.044518000009703,None,w,001,2020_Oct_06_1112,piloto1,2020.2.3,59.880454656277315,
1000,0.0,imagenes\Galletas Tosh.jpg,0.478088790487872,None,0,0,0,3,0,14,14,6,17.23914039999363,17.248376500006998,17.24258190000546,None,3.4544270833333335,0.07437090002349578,17.24258190000546,None,w,001,2020_Oct_06_1112,piloto1,2020.2.3,59.880454656277315,
1000,0.0,imagenes\Papas-pollo.jpg,0.6683114062971784,None,0,0,0,3,0,15,15,15,17.37262138000806,None,17.36938519999967,None,3.4544270833333335,0.11890639999182895,17.36938519999967,None,w,001,2020_Oct_06_1112,piloto1,2020.2.3,59.880454656277315,
1000,0.0,imagenes\Mango.jpeg,0.555669112372461,None,0,0,0,3,0,16,16,10,17.5721729999932,17.5725122000149,17.566343499987852,None,3.4544270833333335,0.0850003000232391,17.566343499987852,None,w,001,2020_Oct_06_1112,piloto1,2020.2.3,59.880454656277315,
1000,0.0,imagenes\Leche-de-almendras.jpg,0.36073876480313727,None,0,0,0,3,0,17,17,9,17.822704799997155,17.829736299987417,17.822844200010877,None,3.4544270833333335,0.14684979998855852,17.822844200010877,None,w,001,2020_Oct_06_1112,piloto1,2020.2.3,59.880454656277315,
1000,0.0,imagenes\Popetas.jpg,0.07650200324054446,None,0,0,0,3,0,18,18,16,18.08963071999024,18.092174599994905,18.083539399987785,None,3.4544270833333335,0.040297499974258244,18.083539399987785,None,w,001,2020_Oct_06_1112,piloto1,2020.2.3,59.880454656277315,
1000,0.0,imagenes\bon-bon-bun.jpg,0.7387922093313524,None,0,0,0,3,0,19,19,2,18.205873900005827,None,18.19855999998981,None,3.4544270833333335,0.2540051999967545,18.19855999998981,None,w,001,2020_Oct_06_1112,piloto1,2020.2.3,59.880454656277315,
1000,0.0,,,,0,0,0,3,,,,,,,,,,,,,w,001,2020_Oct_06_1112,piloto1,2020.2.3,59.880454656277315,
1000,0.02,imagenes\Rosquitas (1).jpg,0.3035383390851263,None,0,1,1,2,0,0,0,17,18.58908347999095,None,18.59021799999755,None,3.4544270833333335,0.16748470001039095,18.59021799999755,None,w,001,2020_Oct_06_1112,piloto1,2020.2.3,59.880454656277315,
1000,0.02,imagenes\Nutella (1).jpg,0.5277483225747329,None,0,1,1,2,0,1,1,12,18.789144319994378,None,18.801001699990593,None,3.4544270833333335,0.12194269997416995,18.801001699990593,None,w,001,2020_Oct_06_1112,piloto1,2020.2.3,59.880454656277315,
1000,0.02,imagenes\Alpinito.jpg,0.4515332417045813,None,0,1,1,2,0,2,2,0,19.00587429999723,19.023400500009302,19.014572899992345,None,3.4544270833333335,0.08807389999856241,19.014572899992345,None,w,001,2020_Oct_06_1112,piloto1,2020.2.3,59.880454656277315,
1000,0.02,imagenes\Manzana.jpg,0.5168162194437935,None,0,1,1,2,0,3,3,11,19.189150399994105,None,19.1976488000073,None,3.4544270833333335,0.07384169998113066,19.1976488000073,None,w,001,2020_Oct_06_1112,piloto1,2020.2.3,59.880454656277315,
1000,0.02,imagenes\Banano.jpeg,0.651633055306917,None,0,1,1,2,0,4,4,1,19.314212079986465,None,19.318735500011826,None,3.4544270833333335,0.45350250002229586,19.318735500011826,None,w,001,2020_Oct_06_1112,piloto1,2020.2.3,59.880454656277315,
1000,0.02,imagenes\Croissant.jpg,0.6152458173421255,None,0,1,1,2,0,5,5,5,19.83898353999248,19.847351000003982,19.839869499992346,None,3.4544270833333335,0.17897030001040548,19.839869499992346,None,w,001,2020_Oct_06_1112,piloto1,2020.2.3,59.880454656277315,
1000,0.02,imagenes\Mango.jpeg,0.555669112372461,None,0,1,1,2,0,6,6,10,20.08909234000603,None,20.081471499986947,None,3.4544270833333335,0.38740099998540245,20.081471499986947,None,w,001,2020_Oct_06_1112,piloto1,2020.2.3,59.880454656277315,
1000,0.02,imagenes\Papas-naturales.jpg,0.15856838916280946,None,0,1,1,2,0,7,7,13,20.505618420010435,None,20.515740000002552,None,3.4544270833333335,0.20735989999957383,20.515740000002552,None,w,001,2020_Oct_06_1112,piloto1,2020.2.3,59.880454656277315,
1000,0.02,imagenes\Galletas-festival.jpg,0.36121121246191135,None,0,1,1,2,0,8,8,7,20.77242798001389,20.78505080001196,20.778000999998767,None,3.4544270833333335,0.15614119998645037,20.778000999998767,None,w,001,2020_Oct_06_1112,piloto1,2020.2.3,59.880454656277315,
1000,0.02,imagenes\Yogurt-alpina.jpg,0.21540995091807813,None,0,1,1,2,0,9,9,18,20.989148479985307,None,20.984504399995785,None,3.4544270833333335,0.1501879999996163,20.984504399995785,None,w,001,2020_Oct_06_1112,piloto1,2020.2.3,59.880454656277315,
1000,0.02,imagenes\Kiwi.jpg,0.5893907384852061,None,0,1,1,2,0,10,10,8,21.17250011999859,None,21.17293639999116,None,3.4544270833333335,0.16575680000823922,21.17293639999116,None,w,001,2020_Oct_06_1112,piloto1,2020.2.3,59.880454656277315,
1000,0.02,imagenes\Leche-de-almendras.jpg,0.36073876480313727,None,0,1,1,2,0,11,11,9,21.52237405999913,None,21.525482299999567,None,3.4544270833333335,0.23053490000893362,21.525482299999567,None,w,001,2020_Oct_06_1112,piloto1,2020.2.3,59.880454656277315,
1000,0.02,imagenes\Chocoramo.jfif.jpg,0.7789437122019539,None,0,1,1,2,0,12,12,4,21.82273794001085,None,21.83087639999576,None,3.4544270833333335,0.13819530000910163,21.83087639999576,None,w,001,2020_Oct_06_1112,piloto1,2020.2.3,59.880454656277315,
1000,0.02,imagenes\Papas-limon.jpg,0.020692288100133793,None,0,1,1,2,0,13,13,14,22.005531319987497,None,22.018112099991413,None,3.4544270833333335,0.13935790001414716,22.018112099991413,None,w,001,2020_Oct_06_1112,piloto1,2020.2.3,59.880454656277315,
1000,0.02,imagenes\Galletas Tosh.jpg,0.478088790487872,None,0,1,1,2,0,14,14,6,22.23892169998726,None,22.246399600000586,None,3.4544270833333335,0.08478249999461696,22.246399600000586,None,w,001,2020_Oct_06_1112,piloto1,2020.2.3,59.880454656277315,
1000,0.02,imagenes\Brownie.jpg,0.17000143351927688,None,0,1,1,2,0,15,15,3,22.426858059997905,22.434335199999623,22.427026099991053,None,3.4544270833333335,0.0931449000199791,22.427026099991053,None,w,001,2020_Oct_06_1112,piloto1,2020.2.3,59.880454656277315,
1000,0.02,imagenes\Popetas.jpg,0.07650200324054446,None,0,1,1,2,0,16,16,16,22.60759319999488,22.612051200005226,22.60573760000989,None,3.4544270833333335,0.11053860001266003,22.60573760000989,None,w,001,2020_Oct_06_1112,piloto1,2020.2.3,59.880454656277315,
1000,0.02,imagenes\Papas-pollo.jpg,0.6683114062971784,None,0,1,1,2,0,17,17,15,22.75569802000537,None,22.768246599996928,None,3.4544270833333335,0.15603350001038052,22.768246599996928,None,w,001,2020_Oct_06_1112,piloto1,2020.2.3,59.880454656277315,
1000,0.02,imagenes\Uvas.jpg,0.7734382152670648,None,0,1,1,2,0,18,18,19,22.972173880011542,None,22.967407299991464,None,3.4544270833333335,0.1358990000153426,22.967407299991464,None,w,001,2020_Oct_06_1112,piloto1,2020.2.3,59.880454656277315,
1000,0.02,imagenes\bon-bon-bun.jpg,0.7387922093313524,None,0,1,1,2,0,19,19,2,23.172246840002483,None,23.177349400008097,None,3.4544270833333335,0.12546750000910833,23.177349400008097,None,w,001,2020_Oct_06_1112,piloto1,2020.2.3,59.880454656277315,
1000,0.02,,,,0,1,1,2,,,,,,,,,,,,,w,001,2020_Oct_06_1112,piloto1,2020.2.3,59.880454656277315,
400,0.02,imagenes\Galletas-festival.jpg,0.36121121246191135,None,0,2,2,0,0,0,0,7,23.388938399992185,None,23.397774300014134,None,3.4544270833333335,0.0897011999913957,23.397774300014134,None,w,001,2020_Oct_06_1112,piloto1,2020.2.3,59.880454656277315,
400,0.02,imagenes\Mango.jpeg,0.555669112372461,None,0,2,2,0,0,1,1,10,23.522001719992844,None,23.529398999991827,None,3.4544270833333335,0.1398351000098046,23.529398999991827,None,w,001,2020_Oct_06_1112,piloto1,2020.2.3,59.880454656277315,
400,0.02,imagenes\Papas-pollo.jpg,0.6683114062971784,None,0,2,2,0,0,2,2,15,23.70583082000958,None,23.711726899986388,None,3.4544270833333335,0.16144679998978972,23.711726899986388,None,w,001,2020_Oct_06_1112,piloto1,2020.2.3,59.880454656277315,
400,0.02,imagenes\Uvas.jpg,0.7734382152670648,None,0,2,2,0,0,3,3,19,23.922364679991734,None,23.91880690000835,None,3.4544270833333335,0.33438220000243746,23.91880690000835,None,w,001,2020_Oct_06_1112,piloto1,2020.2.3,59.880454656277315,
400,0.02,imagenes\Galletas Tosh.jpg,0.478088790487872,None,0,2,2,0,0,4,4,6,24.322341839992443,24.33117079999647,24.323122200003127,None,3.4544270833333335,0.12682949998998083,24.323122200003127,None,w,001,2020_Oct_06_1112,piloto1,2020.2.3,59.880454656277315,
400,0.02,imagenes\bon-bon-bun.jpg,0.7387922093313524,None,0,2,2,0,0,5,5,2,24.52210884000524,None,24.525420099991607,None,3.4544270833333335,0.14393459999701008,24.525420099991607,None,w,001,2020_Oct_06_1112,piloto1,2020.2.3,59.880454656277315,
400,0.02,imagenes\Kiwi.jpg,0.5893907384852061,None,0,2,2,0,0,6,6,8,24.705540420010223,24.71562579998863,24.70447629998671,None,3.4544270833333335,0.18296170001849532,24.70447629998671,None,w,001,2020_Oct_06_1112,piloto1,2020.2.3,59.880454656277315,
400,0.02,imagenes\Papas-naturales.jpg,0.15856838916280946,None,0,2,2,0,0,7,7,13,24.938842079992174,24.942779800010612,24.93463239999255,None,3.4544270833333335,0.12062639999203384,24.93463239999255,None,w,001,2020_Oct_06_1112,piloto1,2020.2.3,59.880454656277315,
400,0.02,imagenes\Papas-limon.jpg,0.020692288100133793,None,0,2,2,0,0,8,8,14,25.088919120014182,25.108141000004252,25.09712099999888,None,3.4544270833333335,0.17490680000628345,25.09712099999888,None,w,001,2020_Oct_06_1112,piloto1,2020.2.3,59.880454656277315,
400,0.02,imagenes\Rosquitas (1).jpg,0.3035383390851263,None,0,2,2,0,0,9,9,17,25.338769639993554,25.34605510000256,25.338277100003324,None,3.4544270833333335,0.1309256000095047,25.338277100003324,None,w,001,2020_Oct_06_1112,piloto1,2020.2.3,59.880454656277315,
400,0.02,imagenes\Yogurt-alpina.jpg,0.21540995091807813,None,0,2,2,0,0,10,10,18,25.50537792001269,None,25.505930799990892,None,3.4544270833333335,0.17967899999348447,25.505930799990892,None,w,001,2020_Oct_06_1112,piloto1,2020.2.3,59.880454656277315,
400,0.02,imagenes\Banano.jpeg,0.651633055306917,None,0,2,2,0,0,11,11,1,25.738899580010912,None,25.739904899994144,None,3.4544270833333335,0.1495559999893885,25.739904899994144,None,w,001,2020_Oct_06_1112,piloto1,2020.2.3,59.880454656277315,
400,0.02,imagenes\Nutella (1).jpg,0.5277483225747329,None,0,2,2,0,0,12,12,12,25.922049920004795,None,25.929962700000033,None,3.4544270833333335,0.1896909999777563,25.929962700000033,None,w,001,2020_Oct_06_1112,piloto1,2020.2.3,59.880454656277315,
400,0.02,imagenes\Chocoramo.jfif.jpg,0.7789437122019539,None,0,2,2,0,0,13,13,4,26.205700299993623,None,26.20313460001489,None,3.4544270833333335,0.10058739999658428,26.20313460001489,None,w,001,2020_Oct_06_1112,piloto1,2020.2.3,59.880454656277315,
400,0.02,imagenes\Alpinito.jpg,0.4515332417045813,None,0,2,2,0,0,14,14,0,26.35520127998898,None,26.3617469999881,None,3.4544270833333335,0.15549150001606904,26.3617469999881,None,w,001,2020_Oct_06_1112,piloto1,2020.2.3,59.880454656277315,
400,0.02,imagenes\Popetas.jpg,0.07650200324054446,None,0,2,2,0,0,15,15,16,26.62209456000128,None,26.6232491999981,None,3.4544270833333335,0.09527950000483543,26.6232491999981,None,w,001,2020_Oct_06_1112,piloto1,2020.2.3,59.880454656277315,
400,0.02,imagenes\Manzana.jpg,0.5168162194437935,None,0,2,2,0,0,16,16,11,26.805621000006795,None,26.802574500004994,None,3.4544270833333335,0.10036099998978898,26.802574500004994,None,w,001,2020_Oct_06_1112,piloto1,2020.2.3,59.880454656277315,
400,0.02,imagenes\Brownie.jpg,0.17000143351927688,None,0,2,2,0,0,17,17,3,26.988819899997907,26.98895649999031,26.982330099999672,None,3.4544270833333335,0.09897670001373626,26.982330099999672,None,w,001,2020_Oct_06_1112,piloto1,2020.2.3,59.880454656277315,
400,0.02,imagenes\Croissant.jpg,0.6152458173421255,None,0,2,2,0,0,18,18,5,27.1219302200072,27.13307710000663,27.12716289999662,None,3.4544270833333335,0.17298699999810196,27.12716289999662,None,w,001,2020_Oct_06_1112,piloto1,2020.2.3,59.880454656277315,
400,0.02,imagenes\Leche-de-almendras.jpg,0.36073876480313727,None,0,2,2,0,0,19,19,9,27.439043879986276,None,27.445699200005038,None,3.4544270833333335,0.0891680000058841,27.445699200005038,None,w,001,2020_Oct_06_1112,piloto1,2020.2.3,59.880454656277315,
400,0.02,,,,0,2,2,0,,,,,,,,,,,,,w,001,2020_Oct_06_1112,piloto1,2020.2.3,59.880454656277315,
1500,0.02,imagenes\Papas-limon.jpg,0.020692288100133793,None,0,3,3,1,0,0,0,14,27.605860840011157,None,27.6091318000108,None,3.4544270833333335,0.15896840000641532,27.6091318000108,None,w,001,2020_Oct_06_1112,piloto1,2020.2.3,59.880454656277315,
1500,0.02,imagenes\Croissant.jpg,0.6152458173421255,None,0,3,3,1,0,1,1,5,27.838614440005042,None,27.842940200003795,None,3.4544270833333335,0.12742360000265762,27.842940200003795,None,w,001,2020_Oct_06_1112,piloto1,2020.2.3,59.880454656277315,
1500,0.02,imagenes\Papas-naturales.jpg,0.15856838916280946,None,0,3,3,1,0,2,2,13,28.022084479988553,None,28.018861599994125,None,3.4544270833333335,0.15442629999597557,28.018861599994125,None,w,001,2020_Oct_06_1112,piloto1,2020.2.3,59.880454656277315,
1500,0.02,imagenes\Galletas Tosh.jpg,0.478088790487872,None,0,3,3,1,0,3,3,6,28.238623540010305,None,28.238335600006394,None,3.4544270833333335,0.11492540000472218,28.238335600006394,None,w,001,2020_Oct_06_1112,piloto1,2020.2.3,59.880454656277315,
1500,0.02,imagenes\Manzana.jpg,0.5168162194437935,None,0,3,3,1,0,4,4,11,28.438895200000843,28.443810199998552,28.43383329999051,None,3.4544270833333335,0.13490659999661148,28.43383329999051,None,w,001,2020_Oct_06_1112,piloto1,2020.2.3,59.880454656277315,
1500,0.02,imagenes\Yogurt-alpina.jpg,0.21540995091807813,None,0,3,3,1,0,5,5,18,28.622011979995296,None,28.628185300010955,None,3.4544270833333335,0.12451310001779348,28.628185300010955,None,w,001,2020_Oct_06_1112,piloto1,2020.2.3,59.880454656277315,
1500,0.02,imagenes\Popetas.jpg,0.07650200324054446,None,0,3,3,1,0,6,6,16,28.838627799996175,None,28.84209039999405,None,3.4544270833333335,0.12572710000677034,28.84209039999405,None,w,001,2020_Oct_06_1112,piloto1,2020.2.3,59.880454656277315,
1500,0.02,imagenes\Uvas.jpg,0.7734382152670648,None,0,3,3,1,0,7,7,19,29.022050479991595,None,29.0200143000111,None,3.4544270833333335,0.1312296999967657,29.0200143000111,None,w,001,2020_Oct_06_1112,piloto1,2020.2.3,59.880454656277315,
1500,0.02,imagenes\bon-bon-bun.jpg,0.7387922093313524,None,0,3,3,1,0,8,8,2,29.222416240000168,None,29.222928500006674,None,3.4544270833333335,0.13037830000394024,29.222928500006674,None,w,001,2020_Oct_06_1112,piloto1,2020.2.3,59.880454656277315,
1500,0.02,imagenes\Nutella (1).jpg,0.5277483225747329,None,0,3,3,1,0,9,9,12,29.40532348000561,None,29.40351350000128,None,3.4544270833333335,0.2880799999984447,29.40351350000128,None,w,001,2020_Oct_06_1112,piloto1,2020.2.3,59.880454656277315,
1500,0.02,imagenes\Galletas-festival.jpg,0.36121121246191135,None,0,3,3,1,0,10,10,7,29.75529773999588,29.75610699999379,29.748870799987344,None,3.4544270833333335,0.1696648999932222,29.748870799987344,None,w,001,2020_Oct_06_1112,piloto1,2020.2.3,59.880454656277315,
1500,0.02,imagenes\Papas-pollo.jpg,0.6683114062971784,None,0,3,3,1,0,11,11,15,29.95510961998953,None,29.964768300007563,None,3.4544270833333335,0.19215380001696758,29.964768300007563,None,w,001,2020_Oct_06_1112,piloto1,2020.2.3,59.880454656277315,
1500,0.02,imagenes\Banano.jpeg,0.651633055306917,None,0,3,3,1,0,12,12,1,30.205326179985423,None,30.212619500001892,None,3.4544270833333335,0.1633465999912005,30.212619500001892,None,w,001,2020_Oct_06_1112,piloto1,2020.2.3,59.880454656277315,
1500,0.02,imagenes\Mango.jpeg,0.555669112372461,None,0,3,3,1,0,13,13,10,30.42176688000909,None,30.42932429999928,None,3.4544270833333335,0.15576759999385104,30.42932429999928,None,w,001,2020_Oct_06_1112,piloto1,2020.2.3,59.880454656277315,
1500,0.02,imagenes\Leche-de-almendras.jpg,0.36073876480313727,None,0,3,3,1,0,14,14,9,30.688571859989317,None,30.69330600000103,None,3.4544270833333335,0.11018710001371801,30.69330600000103,None,w,001,2020_Oct_06_1112,piloto1,2020.2.3,59.880454656277315,
1500,0.02,imagenes\Alpinito.jpg,0.4515332417045813,None,0,3,3,1,0,15,15,0,30.888871700008167,30.885670499992557,30.879643399995985,None,3.4544270833333335,0.15385599998990074,30.879643399995985,None,w,001,2020_Oct_06_1112,piloto1,2020.2.3,59.880454656277315,
1500,0.02,imagenes\Kiwi.jpg,0.5893907384852061,None,0,3,3,1,0,16,16,8,31.071972719993212,31.084494400012773,31.073488900001394,None,3.4544270833333335,0.18014749998110346,31.073488900001394,None,w,001,2020_Oct_06_1112,piloto1,2020.2.3,59.880454656277315,
1500,0.02,imagenes\Chocoramo.jfif.jpg,0.7789437122019539,None,0,3,3,1,0,17,17,4,31.322139739996057,None,31.320592200005194,None,3.4544270833333335,0.13187419998575933,31.320592200005194,None,w,001,2020_Oct_06_1112,piloto1,2020.2.3,59.880454656277315,
1500,0.02,imagenes\Brownie.jpg,0.17000143351927688,None,0,3,3,1,0,18,18,3,31.538342999992892,None,31.53756309999153,None,3.4544270833333335,0.1707487000094261,31.53756309999153,None,w,001,2020_Oct_06_1112,piloto1,2020.2.3,59.880454656277315,
1500,0.02,imagenes\Rosquitas (1).jpg,0.3035383390851263,None,0,3,3,1,0,19,19,17,31.77186333999853,None,31.78107570001157,None,3.4544270833333335,0.354761900001904,31.78107570001157,None,w,001,2020_Oct_06_1112,piloto1,2020.2.3,59.880454656277315,
1500,0.02,,,,0,3,3,1,,,,,,,,,,,,,w,001,2020_Oct_06_1112,piloto1,2020.2.3,59.880454656277315,
