Hertz,volumen,Imagenes,Random,Correcto,trials.thisRepN,trials.thisTrialN,trials.thisN,trials.thisIndex,trials_2.thisRepN,trials_2.thisTrialN,trials_2.thisN,trials_2.thisIndex,mensaje_intro.started,mensaje_intro.stopped,mensaje_intro_2.started,mensaje_intro_2.stopped,textbox_prueba.started,textbox_prueba.stopped,sonido_prueba.started,sonido_prueba.stopped,image_prueba.started,image_prueba.stopped,slider_prueba.response,slider_prueba.rt,slider_prueba.started,slider_prueba.stopped,sonido_prueba_2.started,sonido_prueba_2.stopped,image_prueba_2.started,image_prueba_2.stopped,slider_prueba_2.response,slider_prueba_2.rt,slider_prueba_2.started,slider_prueba_2.stopped,textbox_prueba_2.started,textbox_prueba_2.stopped,sonido_exp.started,sonido_exp.stopped,image_exp.started,image_exp.stopped,slider_exp.response,slider_exp.rt,slider_exp.started,slider_exp.stopped,text_subasta1.started,text_subasta1.stopped,text_subasta2.started,text_subasta2.stopped,text.started,text.stopped,participant,session,date,expName,psychopyVersion,frameRate,
1500,0.02,imagenes/Papas picantes.jpg,0.524978898672612,None,0,0,0,1,0,0,0,27,11.472042999987025,None,14.854352700000163,None,20.832482199999504,None,22.89935516998521,None,23.9298967999639,None,1.5924479166666665,1.9136002999730408,23.9298967999639,None,24.832532169955083,None,25.828907899965998,None,3.643229166666667,1.3329853999894112,25.828907899965998,None,26.182289199961815,None,28.68453050997923,29.684481200005393,29.684481200005393,None,3.48046875,1.5437592000234872,29.684481200005393,None,,,,,,,y,001,2021_Jan_08_2331,piloto1,2020.2.5,60.01529189404076,
1500,0.02,imagenes/Nutella (1).jpg,0.8826531883338111,None,0,0,0,1,0,1,1,12,,,,,,,,,,,,,,,,,,,,,,,,,30.25150827000034,None,31.248766899982,None,3.91015625,1.4911184000084177,31.248766899982,None,,,,,,,y,001,2021_Jan_08_2331,piloto1,2020.2.5,60.01529189404076,
1500,0.02,imagenes/Pizza.png,0.21192443516553439,None,0,0,0,1,0,2,2,31,,,,,,,,,,,,,,,,,,,,,,,,,31.782093239983077,None,32.76548439997714,None,4.294270833333333,1.382123599993065,32.76548439997714,None,,,,,,,y,001,2021_Jan_08_2331,piloto1,2020.2.5,60.01529189404076,
1500,0.02,imagenes/Leche-de-almendras.jpg,0.3886559457994673,None,0,0,0,1,0,3,3,9,,,,,,,,,,,,,,,,,,,,,,,,,33.26540222000331,None,34.23214109998662,None,3.3828125,1.1190612000063993,34.23214109998662,None,,,,,,,y,001,2021_Jan_08_2331,piloto1,2020.2.5,60.01529189404076,
1500,0.02,imagenes/Pizzetas.png,0.3295951589873042,None,0,0,0,1,0,4,4,32,,,,,,,,,,,,,,,,,,,,,,,,,34.41557653996861,35.415652099996805,35.39875549997669,None,2.85546875,1.4621726000332274,35.39875549997669,None,,,,,,,y,001,2021_Jan_08_2331,piloto1,2020.2.5,60.01529189404076,
1500,0.02,imagenes/Yogurt-alpina.jpg,0.5445152936222175,None,0,0,0,1,0,5,5,18,,,,,,,,,,,,,,,,,,,,,,,,,35.91560563995736,None,36.89857479999773,None,1.9309895833333335,1.7516473000287078,36.89857479999773,None,,,,,,,y,001,2021_Jan_08_2331,piloto1,2020.2.5,60.01529189404076,
1500,0.02,imagenes/salchicha hojaldrada.jpg,0.7119773165481526,None,0,0,0,1,0,6,6,35,,,,,,,,,,,,,,,,,,,,,,,,,37.6818879699742,None,38.66527689999202,None,1.0911458333333335,1.1961585999815725,38.66527689999202,None,,,,,,,y,001,2021_Jan_08_2331,piloto1,2020.2.5,60.01529189404076,
1500,0.02,imagenes/Papas-pollo.jpg,0.08373485417902837,None,0,0,0,1,0,7,7,15,,,,,,,,,,,,,,,,,,,,,,,,,38.898541569960074,None,39.89870239997981,None,1,1.2250579999526963,39.89870239997981,None,,,,,,,y,001,2021_Jan_08_2331,piloto1,2020.2.5,60.01529189404076,
1500,0.02,imagenes/Croissant.jpg,0.5824748589948932,None,0,0,0,1,0,8,8,5,,,,,,,,,,,,,,,,,,,,,,,,,40.16520763995359,None,41.14862719998928,None,1,1.1666833000490442,41.14862719998928,None,,,,,,,y,001,2021_Jan_08_2331,piloto1,2020.2.5,60.01529189404076,
1500,0.02,imagenes/bon-bon-bun.jpg,0.7417452724056987,None,0,0,0,1,0,9,9,2,,,,,,,,,,,,,,,,,,,,,,,,,41.3650654399884,42.365120099973865,42.348385499964934,None,1,1.1281651000026613,42.348385499964934,None,,,,,,,y,001,2021_Jan_08_2331,piloto1,2020.2.5,60.01529189404076,
1500,0.02,imagenes/Kiwi.jpg,0.3929145850942286,None,0,0,0,1,0,10,10,8,,,,,,,,,,,,,,,,,,,,,,,,,42.51474907000666,43.5158223999897,43.4982509999536,None,1,1.0970926000154577,43.4982509999536,None,,,,,,,y,001,2021_Jan_08_2331,piloto1,2020.2.5,60.01529189404076,
1500,0.02,imagenes/Rosquitas (1).jpg,0.024090340010977873,None,0,0,0,1,0,11,11,17,,,,,,,,,,,,,,,,,,,,,,,,,43.63221867000102,44.63161099998979,44.63161099998979,None,1,1.0368434999836609,44.63161099998979,None,,,,,,,y,001,2021_Jan_08_2331,piloto1,2020.2.5,60.01529189404076,
1500,0.02,imagenes/Papas-limon.jpg,0.5280798509093595,None,0,0,0,1,0,12,12,14,,,,,,,,,,,,,,,,,,,,,,,,,44.6983297699655,45.69801719998941,45.69801719998941,None,1.0390625,1.239638399973046,45.69801719998941,None,,,,,,,y,001,2021_Jan_08_2331,piloto1,2020.2.5,60.01529189404076,
1500,0.02,imagenes/Rollos de canela.png,0.2610974409574519,None,0,0,0,1,0,13,13,34,,,,,,,,,,,,,,,,,,,,,,,,,45.98151443995303,None,46.965036499954294,None,1.0455729166666665,1.1180242999689654,46.965036499954294,None,,,,,,,y,001,2021_Jan_08_2331,piloto1,2020.2.5,60.01529189404076,
1500,0.02,imagenes/Uvas.jpg,0.4959291644143431,None,0,0,0,1,0,14,14,19,,,,,,,,,,,,,,,,,,,,,,,,,47.11520606997074,48.11530700000003,48.11530700000003,None,1.1041666666666665,1.4421264000120573,48.11530700000003,None,,,,,,,y,001,2021_Jan_08_2331,piloto1,2020.2.5,60.01529189404076,
1500,0.02,imagenes/Brownie.jpg,0.2838924074864093,None,0,0,0,1,0,15,15,3,,,,,,,,,,,,,,,,,,,,,,,,,48.59827314000577,49.59790569997858,49.59790569997858,None,1.1236979166666665,2.058307799976319,49.59790569997858,None,,,,,,,y,001,2021_Jan_08_2331,piloto1,2020.2.5,60.01529189404076,
1500,0.02,imagenes/Chocoramo.jfif.jpg,0.7425528559884101,None,0,0,0,1,0,16,16,4,,,,,,,,,,,,,,,,,,,,,,,,,50.6979934400064,None,51.68119569995906,None,1.1236979166666665,0.9969614999718033,51.68119569995906,None,,,,,,,y,001,2021_Jan_08_2331,piloto1,2020.2.5,60.01529189404076,
1500,0.02,imagenes/Alpinito.jpg,0.7416150880621702,None,0,0,0,1,0,17,17,0,,,,,,,,,,,,,,,,,,,,,,,,,51.74777950997814,52.74794179998571,52.74794179998571,None,1.1236979166666665,1.2906473000184633,52.74794179998571,None,,,,,,,y,001,2021_Jan_08_2331,piloto1,2020.2.5,60.01529189404076,
1500,0.02,imagenes/Popetas.jpg,0.9621625733302204,None,0,0,0,1,0,18,18,16,,,,,,,,,,,,,,,,,,,,,,,,,53.08103623995558,54.08138379995944,54.08138379995944,None,1.1236979166666665,1.13713230000576,54.08138379995944,None,,,,,,,y,001,2021_Jan_08_2331,piloto1,2020.2.5,60.01529189404076,
1500,0.02,imagenes/Galletas Tosh.jpg,0.9129693753280027,None,0,0,0,1,0,19,19,6,,,,,,,,,,,,,,,,,,,,,,,,,54.2648651399999,None,55.24775589996716,None,1,1.7665228000259958,55.24775589996716,None,,,,,,,y,001,2021_Jan_08_2331,piloto1,2020.2.5,60.01529189404076,
1500,0.02,imagenes/Brocoli.jpg,0.24293074945529525,None,0,0,0,1,0,20,20,21,,,,,,,,,,,,,,,,,,,,,,,,,56.04805936997873,57.047729999991134,57.03117709996877,None,1.0,1.0973140000132844,57.03117709996877,None,,,,,,,y,001,2021_Jan_08_2331,piloto1,2020.2.5,60.01529189404076,
1500,0.02,imagenes/Almojabanas.png,0.6725051200713246,None,0,0,0,1,0,21,21,20,,,,,,,,,,,,,,,,,,,,,,,,,57.18102783998475,58.181045999983326,58.181045999983326,None,1.0,1.2905323999584652,58.181045999983326,None,,,,,,,y,001,2021_Jan_08_2331,piloto1,2020.2.5,60.01529189404076,
1500,0.02,imagenes/Canelazo.png,0.6730479360767814,None,0,0,0,1,0,22,22,22,,,,,,,,,,,,,,,,,,,,,,,,,58.53086031000712,None,59.51413699996192,None,1.0,1.3003528999979608,59.51413699996192,None,,,,,,,y,001,2021_Jan_08_2331,piloto1,2020.2.5,60.01529189404076,
1500,0.02,imagenes/Papas-naturales.jpg,0.37590629905521566,None,0,0,0,1,0,23,23,13,,,,,,,,,,,,,,,,,,,,,,,,,59.84753236997058,60.84758469997905,60.84758469997905,None,1.0,1.038712800014764,60.84758469997905,None,,,,,,,y,001,2021_Jan_08_2331,piloto1,2020.2.5,60.01529189404076,
1500,0.02,imagenes/Mango.jpeg,0.4341155418941499,None,0,0,0,1,0,24,24,10,,,,,,,,,,,,,,,,,,,,,,,,,60.91426476995112,61.9142171999556,61.9142171999556,None,1.0,1.021610600000713,61.9142171999556,None,,,,,,,y,001,2021_Jan_08_2331,piloto1,2020.2.5,60.01529189404076,
1500,0.02,imagenes/Pepinillos.png,0.0038966441241518046,None,0,0,0,1,0,25,25,28,,,,,,,,,,,,,,,,,,,,,,,,,61.9808436399675,None,62.98089289997006,None,1.0,1.9592937999987043,62.98089289997006,None,,,,,,,y,001,2021_Jan_08_2331,piloto1,2020.2.5,60.01529189404076,
1500,0.02,imagenes/pistachos.jpg,0.7450869742741464,None,0,0,0,1,0,26,26,30,,,,,,,,,,,,,,,,,,,,,,,,,63.96399037000374,None,64.94794889999321,None,1.0,1.0816940999939106,64.94794889999321,None,,,,,,,y,001,2021_Jan_08_2331,piloto1,2020.2.5,60.01529189404076,
1500,0.02,imagenes/Banano.jpeg,0.2267656716538785,None,0,0,0,1,0,27,27,1,,,,,,,,,,,,,,,,,,,,,,,,,65.06398607000592,66.06396239995956,66.06396239995956,None,1.0,1.0719951000064611,66.06396239995956,None,,,,,,,y,001,2021_Jan_08_2331,piloto1,2020.2.5,60.01529189404076,
1500,0.02,imagenes/Coliflor.jpg,0.3640740491088985,None,0,0,0,1,0,28,28,24,,,,,,,,,,,,,,,,,,,,,,,,,66.16426696996787,None,67.16423799999757,None,1.0,1.1597025000373833,67.16423799999757,None,,,,,,,y,001,2021_Jan_08_2331,piloto1,2020.2.5,60.01529189404076,
1500,0.02,imagenes/Chontaduro.png,0.8693553300418813,None,0,0,0,1,0,29,29,23,,,,,,,,,,,,,,,,,,,,,,,,,67.34745906999451,68.34738239995204,68.34738239995204,None,1.0,1.2932775999652222,68.34738239995204,None,,,,,,,y,001,2021_Jan_08_2331,piloto1,2020.2.5,60.01529189404076,
1500,0.02,imagenes/Muffin de banano.png,0.9610615059009696,None,0,0,0,1,0,30,30,25,,,,,,,,,,,,,,,,,,,,,,,,,68.68039213997545,69.68025489995489,69.68025489995489,None,1.0,1.2875147999729961,69.68025489995489,None,,,,,,,y,001,2021_Jan_08_2331,piloto1,2020.2.5,60.01529189404076,
1500,0.02,imagenes/Pandebono.png,0.8988574378129985,None,0,0,0,1,0,31,31,26,,,,,,,,,,,,,,,,,,,,,,,,,70.01370083998191,71.01372230000561,71.01372230000561,None,1.0,2.103596300003119,71.01372230000561,None,,,,,,,y,001,2021_Jan_08_2331,piloto1,2020.2.5,60.01529189404076,
1500,0.02,imagenes/Rollo de queso.png,0.9201641182756888,None,0,0,0,1,0,32,32,33,,,,,,,,,,,,,,,,,,,,,,,,,72.16390863995767,73.16368519997923,73.14693729998544,None,1.0,1.2272520999540575,73.14693729998544,None,,,,,,,y,001,2021_Jan_08_2331,piloto1,2020.2.5,60.01529189404076,
1500,0.02,imagenes/Galletas-festival.jpg,0.11306074364032936,None,0,0,0,1,0,33,33,7,,,,,,,,,,,,,,,,,,,,,,,,,73.43023223998026,74.43043569999281,74.41384559997823,None,None,None,74.41384559997823,None,,,,,,,y,001,2021_Jan_08_2331,piloto1,2020.2.5,60.01529189404076,
1500,0.02,imagenes/Pescadito.png,0.7172825011486081,None,0,0,0,1,0,34,34,29,,,,,,,,,,,,,,,,,,,,,,,,,76.41375086999615,77.41366149997339,77.41366149997339,76.41443899995647,1.0,1.1392545000417158,77.41366149997339,76.41443899995647,,,,,,,y,001,2021_Jan_08_2331,piloto1,2020.2.5,60.01529189404076,
1500,0.02,imagenes/Manzana.jpg,0.4048420327008191,None,0,0,0,1,0,35,35,11,,,,,,,,,,,,,,,,,,,,,,,,,77.59688224000857,None,78.5802110999939,None,1.0,1.316658700001426,78.5802110999939,None,,,,,,,y,001,2021_Jan_08_2331,piloto1,2020.2.5,60.01529189404076,
1500,0.02,,,,0,0,0,1,,,,,,,,,,,,,,,,,,,,,,,,,,,,,,,,,,,,,,,,,,,y,001,2021_Jan_08_2331,piloto1,2020.2.5,60.01529189404076,
1000,0.0,imagenes/Pizzetas.png,0.3295951589873042,None,0,1,1,3,0,0,0,32,,,,,,,,,,,,,,,,,,,,,,,,,78.94655403998914,79.9467042000033,79.93023840000387,None,1.0,1.245383800007403,79.93023840000387,None,,,,,,,y,001,2021_Jan_08_2331,piloto1,2020.2.5,60.01529189404076,
1000,0.0,imagenes/Rosquitas (1).jpg,0.024090340010977873,None,0,1,1,3,0,1,1,17,,,,,,,,,,,,,,,,,,,,,,,,,80.23041563996813,81.22992879996309,81.22992879996309,None,1.0,2.6892812000005506,81.22992879996309,None,,,,,,,y,001,2021_Jan_08_2331,piloto1,2020.2.5,60.01529189404076,
1000,0.0,imagenes/Rollo de queso.png,0.9201641182756888,None,0,1,1,3,0,2,2,33,,,,,,,,,,,,,,,,,,,,,,,,,82.96328033999308,None,83.94666039996082,None,1.0,2.0651813999866135,83.94666039996082,None,,,,,,,y,001,2021_Jan_08_2331,piloto1,2020.2.5,60.01529189404076,
1000,0.0,imagenes/Rollos de canela.png,0.2610974409574519,None,0,1,1,3,0,3,3,34,,,,,,,,,,,,,,,,,,,,,,,,,85.04642606999842,None,86.04640519997338,None,1.0,1.6241006999625824,86.04640519997338,None,,,,,,,y,001,2021_Jan_08_2331,piloto1,2020.2.5,60.01529189404076,
1000,0.0,imagenes/Uvas.jpg,0.4959291644143431,None,0,1,1,3,0,4,4,19,,,,,,,,,,,,,,,,,,,,,,,,,86.69635806996958,87.69638389995089,87.69638389995089,None,None,None,87.69638389995089,None,,,,,,,y,001,2021_Jan_08_2331,piloto1,2020.2.5,60.01529189404076,
1000,0.0,imagenes/Coliflor.jpg,0.3640740491088985,None,0,1,1,3,0,5,5,24,,,,,,,,,,,,,,,,,,,,,,,,,89.7129501399817,None,90.69626209995477,89.70528339996235,1.0,1.8482791000278667,90.69626209995477,89.70528339996235,,,,,,,y,001,2021_Jan_08_2331,piloto1,2020.2.5,60.01529189404076,
1000,0.0,imagenes/Kiwi.jpg,0.3929145850942286,None,0,1,1,3,0,6,6,8,,,,,,,,,,,,,,,,,,,,,,,,,91.57943076997181,None,92.56285769998794,None,1.0,1.0621735000167973,92.56285769998794,None,,,,,,,y,001,2021_Jan_08_2331,piloto1,2020.2.5,60.01529189404076,
1000,0.0,imagenes/Pandebono.png,0.8988574378129985,None,0,1,1,3,0,7,7,26,,,,,,,,,,,,,,,,,,,,,,,,,92.6793219399755,93.67953089997172,93.66272689995822,None,1.0,1.8301943999831565,93.66272689995822,None,,,,,,,y,001,2021_Jan_08_2331,piloto1,2020.2.5,60.01529189404076,
1000,0.0,imagenes/Chontaduro.png,0.8693553300418813,None,0,1,1,3,0,8,8,23,,,,,,,,,,,,,,,,,,,,,,,,,94.52944917000714,None,95.52950469998177,None,1,1.7728684999747202,95.52950469998177,None,,,,,,,y,001,2021_Jan_08_2331,piloto1,2020.2.5,60.01529189404076,
1000,0.0,imagenes/Pescadito.png,0.7172825011486081,None,0,1,1,3,0,9,9,29,,,,,,,,,,,,,,,,,,,,,,,,,96.345927439956,None,97.32928619999439,None,1,1.4526497999904677,97.32928619999439,None,,,,,,,y,001,2021_Jan_08_2331,piloto1,2020.2.5,60.01529189404076,
1000,0.0,imagenes/Nutella (1).jpg,0.8826531883338111,None,0,1,1,3,0,10,10,12,,,,,,,,,,,,,,,,,,,,,,,,,97.81248717000126,None,98.81266779999714,None,1,1.5062699999543838,98.81266779999714,None,,,,,,,y,001,2021_Jan_08_2331,piloto1,2020.2.5,60.01529189404076,
1000,0.0,imagenes/Pepinillos.png,0.0038966441241518046,None,0,1,1,3,0,11,11,28,,,,,,,,,,,,,,,,,,,,,,,,,99.36244123997167,100.3623060999671,100.3623060999671,None,1,2.1752339999657124,100.3623060999671,None,,,,,,,y,001,2021_Jan_08_2331,piloto1,2020.2.5,60.01529189404076,
1000,0.0,imagenes/Brownie.jpg,0.2838924074864093,None,0,1,1,3,0,12,12,3,,,,,,,,,,,,,,,,,,,,,,,,,101.59566600998515,102.59560959995724,102.5791104999953,None,1,1.2316666999831796,102.5791104999953,None,,,,,,,y,001,2021_Jan_08_2331,piloto1,2020.2.5,60.01529189404076,
1000,0.0,imagenes/Papas picantes.jpg,0.524978898672612,None,0,1,1,3,0,13,13,27,,,,,,,,,,,,,,,,,,,,,,,,,102.8456790700031,103.84576699999161,103.82904869999038,None,None,None,103.82904869999038,None,,,,,,,y,001,2021_Jan_08_2331,piloto1,2020.2.5,60.01529189404076,
1000,0.0,imagenes/Brocoli.jpg,0.24293074945529525,None,0,1,1,3,0,14,14,21,,,,,,,,,,,,,,,,,,,,,,,,,105.82886436996633,None,106.81220769998617,105.82880560000194,1,1.1959722000174224,106.81220769998617,105.82880560000194,,,,,,,y,001,2021_Jan_08_2331,piloto1,2020.2.5,60.01529189404076,
1000,0.0,imagenes/Manzana.jpg,0.4048420327008191,None,0,1,1,3,0,15,15,11,,,,,,,,,,,,,,,,,,,,,,,,,107.06200183995534,108.06208089995198,108.06208089995198,None,1,1.2230931000085548,108.06208089995198,None,,,,,,,y,001,2021_Jan_08_2331,piloto1,2020.2.5,60.01529189404076,
1000,0.0,imagenes/salchicha hojaldrada.jpg,0.7119773165481526,None,0,1,1,3,0,16,16,35,,,,,,,,,,,,,,,,,,,,,,,,,108.31209757000325,None,109.29540979996091,None,1,1.3632802000502124,109.29540979996091,None,,,,,,,y,001,2021_Jan_08_2331,piloto1,2020.2.5,60.01529189404076,
1000,0.0,imagenes/Galletas Tosh.jpg,0.9129693753280027,None,0,1,1,3,0,17,17,6,,,,,,,,,,,,,,,,,,,,,,,,,109.71191953999224,None,110.71199949999573,None,1,1.761153600004036,110.71199949999573,None,,,,,,,y,001,2021_Jan_08_2331,piloto1,2020.2.5,60.01529189404076,
1000,0.0,imagenes/Papas-limon.jpg,0.5280798509093595,None,0,1,1,3,0,18,18,14,,,,,,,,,,,,,,,,,,,,,,,,,111.49516397000407,112.49533459998202,112.49533459998202,None,None,None,112.49533459998202,None,,,,,,,y,001,2021_Jan_08_2331,piloto1,2020.2.5,60.01529189404076,
1000,0.0,imagenes/Croissant.jpg,0.5824748589948932,None,0,1,1,3,0,19,19,5,,,,,,,,,,,,,,,,,,,,,,,,,114.52858120999882,None,115.51173179998295,114.51772790000541,1,1.5855690999887884,115.51173179998295,114.51772790000541,,,,,,,y,001,2021_Jan_08_2331,piloto1,2020.2.5,60.01529189404076,
1000,0.0,imagenes/Yogurt-alpina.jpg,0.5445152936222175,None,0,1,1,3,0,20,20,18,,,,,,,,,,,,,,,,,,,,,,,,,116.12843736996292,117.12839209998492,117.12839209998492,None,1,1.1550076000276022,117.12839209998492,None,,,,,,,y,001,2021_Jan_08_2331,piloto1,2020.2.5,60.01529189404076,
1000,0.0,imagenes/Muffin de banano.png,0.9610615059009696,None,0,1,1,3,0,21,21,25,,,,,,,,,,,,,,,,,,,,,,,,,117.34480140997913,118.34481449995656,118.34481449995656,None,1,1.3217751000192948,118.34481449995656,None,,,,,,,y,001,2021_Jan_08_2331,piloto1,2020.2.5,60.01529189404076,
1000,0.0,imagenes/Mango.jpeg,0.4341155418941499,None,0,1,1,3,0,22,22,10,,,,,,,,,,,,,,,,,,,,,,,,,118.71193183996948,None,119.69481610000366,None,1,1.365681900002528,119.69481610000366,None,,,,,,,y,001,2021_Jan_08_2331,piloto1,2020.2.5,60.01529189404076,
1000,0.0,imagenes/Papas-naturales.jpg,0.37590629905521566,None,0,1,1,3,0,23,23,13,,,,,,,,,,,,,,,,,,,,,,,,,120.0947367699875,121.09481969999615,121.09481969999615,None,1,1.5247729000402614,121.09481969999615,None,,,,,,,y,001,2021_Jan_08_2331,piloto1,2020.2.5,60.01529189404076,
1000,0.0,imagenes/Chocoramo.jfif.jpg,0.7425528559884101,None,0,1,1,3,0,24,24,4,,,,,,,,,,,,,,,,,,,,,,,,,121.66140113995644,122.66153669997584,122.66153669997584,None,1,1.8392047000234015,122.66153669997584,None,,,,,,,y,001,2021_Jan_08_2331,piloto1,2020.2.5,60.01529189404076,
1000,0.0,imagenes/bon-bon-bun.jpg,0.7417452724056987,None,0,1,1,3,0,25,25,2,,,,,,,,,,,,,,,,,,,,,,,,,123.54475193998078,None,124.52812259999337,None,1,1.3853333999868482,124.52812259999337,None,,,,,,,y,001,2021_Jan_08_2331,piloto1,2020.2.5,60.01529189404076,
1000,0.0,imagenes/Pizza.png,0.21192443516553439,None,0,1,1,3,0,26,26,31,,,,,,,,,,,,,,,,,,,,,,,,,124.94462396997842,125.94473689998267,125.94473689998267,None,1,1.1067671999917366,125.94473689998267,None,,,,,,,y,001,2021_Jan_08_2331,piloto1,2020.2.5,60.01529189404076,
1000,0.0,imagenes/Almojabanas.png,0.6725051200713246,None,0,1,1,3,0,27,27,20,,,,,,,,,,,,,,,,,,,,,,,,,126.09437893998111,127.0945504999836,127.0945504999836,None,None,None,127.0945504999836,None,,,,,,,y,001,2021_Jan_08_2331,piloto1,2020.2.5,60.01529189404076,
1000,0.0,imagenes/Galletas-festival.jpg,0.11306074364032936,None,0,1,1,3,0,28,28,7,,,,,,,,,,,,,,,,,,,,,,,,,129.11092143998246,None,130.09457399998792,129.0992605999927,1,1.6188581999740563,130.09457399998792,129.0992605999927,,,,,,,y,001,2021_Jan_08_2331,piloto1,2020.2.5,60.01529189404076,
1000,0.0,imagenes/pistachos.jpg,0.7450869742741464,None,0,1,1,3,0,29,29,30,,,,,,,,,,,,,,,,,,,,,,,,,130.74441477000363,None,131.72782249999,None,1,1.1630698000080884,131.72782249999,None,,,,,,,y,001,2021_Jan_08_2331,piloto1,2020.2.5,60.01529189404076,
1000,0.0,imagenes/Canelazo.png,0.6730479360767814,None,0,1,1,3,0,30,30,22,,,,,,,,,,,,,,,,,,,,,,,,,131.96092280995217,None,132.96137179998914,None,1,1.1243439000099897,132.96137179998914,None,,,,,,,y,001,2021_Jan_08_2331,piloto1,2020.2.5,60.01529189404076,
1000,0.0,imagenes/Alpinito.jpg,0.7416150880621702,None,0,1,1,3,0,31,31,0,,,,,,,,,,,,,,,,,,,,,,,,,133.1442029100086,134.1441914999741,134.12779479997698,None,1,1.2622513999813236,134.12779479997698,None,,,,,,,y,001,2021_Jan_08_2331,piloto1,2020.2.5,60.01529189404076,
1000,0.0,imagenes/Banano.jpeg,0.2267656716538785,None,0,1,1,3,0,32,32,1,,,,,,,,,,,,,,,,,,,,,,,,,134.44414173995608,None,135.41081319999648,None,1,1.6513975999550894,135.41081319999648,None,,,,,,,y,001,2021_Jan_08_2331,piloto1,2020.2.5,60.01529189404076,
1000,0.0,imagenes/Popetas.jpg,0.9621625733302204,None,0,1,1,3,0,33,33,16,,,,,,,,,,,,,,,,,,,,,,,,,136.12751204000085,137.1274247999536,137.1274247999536,None,1,1.17194600001676,137.1274247999536,None,,,,,,,y,001,2021_Jan_08_2331,piloto1,2020.2.5,60.01529189404076,
1000,0.0,imagenes/Leche-de-almendras.jpg,0.3886559457994673,None,0,1,1,3,0,34,34,9,,,,,,,,,,,,,,,,,,,,,,,,,137.39426845000708,138.39397569996072,138.39397569996072,None,1,1.0441691000014544,138.39397569996072,None,,,,,,,y,001,2021_Jan_08_2331,piloto1,2020.2.5,60.01529189404076,
1000,0.0,imagenes/Papas-pollo.jpg,0.08373485417902837,None,0,1,1,3,0,35,35,15,,,,,,,,,,,,,,,,,,,,,,,,,138.46074177000554,139.4607589999796,139.4607589999796,None,1,1.2230049999780022,139.4607589999796,None,,,,,,,y,001,2021_Jan_08_2331,piloto1,2020.2.5,60.01529189404076,
1000,0.0,,,,0,1,1,3,,,,,,,,,,,,,,,,,,,,,,,,,,,,,,,,,,,,,,,,,,,y,001,2021_Jan_08_2331,piloto1,2020.2.5,60.01529189404076,
1000,0.02,imagenes/Pescadito.png,0.7172825011486081,None,0,2,2,2,0,0,0,29,,,,,,,,,,,,,,,,,,,,,,,,,139.72732113997915,None,140.7273841999704,None,1,1.2413958999677561,140.7273841999704,None,,,,,,,y,001,2021_Jan_08_2331,piloto1,2020.2.5,60.01529189404076,
1000,0.02,imagenes/Manzana.jpg,0.4048420327008191,None,0,2,2,2,0,1,1,11,,,,,,,,,,,,,,,,,,,,,,,,,141.01068213998803,None,141.9939586999826,None,1,1.210579200007487,141.9939586999826,None,,,,,,,y,001,2021_Jan_08_2331,piloto1,2020.2.5,60.01529189404076,
1000,0.02,imagenes/Pandebono.png,0.8988574378129985,None,0,2,2,2,0,2,2,26,,,,,,,,,,,,,,,,,,,,,,,,,142.24386846997658,143.2438880999689,143.2438880999689,None,1,1.3886913000023924,143.2438880999689,None,,,,,,,y,001,2021_Jan_08_2331,piloto1,2020.2.5,60.01529189404076,
1000,0.02,imagenes/Leche-de-almendras.jpg,0.3886559457994673,None,0,2,2,2,0,3,3,9,,,,,,,,,,,,,,,,,,,,,,,,,143.69401120999245,144.6940705999732,144.6940705999732,None,1,2.125071399961598,144.6940705999732,None,,,,,,,y,001,2021_Jan_08_2331,piloto1,2020.2.5,60.01529189404076,
1000,0.02,imagenes/Chocoramo.jfif.jpg,0.7425528559884101,None,0,2,2,2,0,4,4,4,,,,,,,,,,,,,,,,,,,,,,,,,145.8605945399962,None,146.8604346999782,None,1,1.1554209000314586,146.8604346999782,None,,,,,,,y,001,2021_Jan_08_2331,piloto1,2020.2.5,60.01529189404076,
1000,0.02,imagenes/Galletas-festival.jpg,0.11306074364032936,None,0,2,2,2,0,5,5,7,,,,,,,,,,,,,,,,,,,,,,,,,147.0602407399914,None,148.04386509995675,None,1,2.3307276000268757,148.04386509995675,None,,,,,,,y,001,2021_Jan_08_2331,piloto1,2020.2.5,60.01529189404076,
1000,0.02,imagenes/Galletas Tosh.jpg,0.9129693753280027,None,0,2,2,2,0,6,6,6,,,,,,,,,,,,,,,,,,,,,,,,,149.4269643399515,150.4268181999796,150.4103013999993,None,1,1.1471985999960452,150.4103013999993,None,,,,,,,y,001,2021_Jan_08_2331,piloto1,2020.2.5,60.01529189404076,
1000,0.02,imagenes/Banano.jpeg,0.2267656716538785,None,0,2,2,2,0,7,7,1,,,,,,,,,,,,,,,,,,,,,,,,,150.61023483999304,None,151.59445390000474,None,1,1.784978800045792,151.59445390000474,None,,,,,,,y,001,2021_Jan_08_2331,piloto1,2020.2.5,60.01529189404076,
1000,0.02,imagenes/pistachos.jpg,0.7450869742741464,None,0,2,2,2,0,8,8,30,,,,,,,,,,,,,,,,,,,,,,,,,152.40994856997276,None,153.3944160999963,None,1,1.3493758999975398,153.3944160999963,None,,,,,,,y,001,2021_Jan_08_2331,piloto1,2020.2.5,60.01529189404076,
1000,0.02,imagenes/Coliflor.jpg,0.3640740491088985,None,0,2,2,2,0,9,9,24,,,,,,,,,,,,,,,,,,,,,,,,,153.77664297000155,154.77673639997374,154.77673639997374,None,1,2.5556316999718547,154.77673639997374,None,,,,,,,y,001,2021_Jan_08_2331,piloto1,2020.2.5,60.01529189404076,
1000,0.02,imagenes/Uvas.jpg,0.4959291644143431,None,0,2,2,2,0,10,10,19,,,,,,,,,,,,,,,,,,,,,,,,,156.37648593998745,None,157.36035410000477,None,1,1.0040001000161283,157.36035410000477,None,,,,,,,y,001,2021_Jan_08_2331,piloto1,2020.2.5,60.01529189404076,
1000,0.02,imagenes/Popetas.jpg,0.9621625733302204,None,0,2,2,2,0,11,11,16,,,,,,,,,,,,,,,,,,,,,,,,,157.426395209966,None,158.41032249998534,None,1,0.9991819999995641,158.41032249998534,None,,,,,,,y,001,2021_Jan_08_2331,piloto1,2020.2.5,60.01529189404076,
1000,0.02,imagenes/Rosquitas (1).jpg,0.024090340010977873,None,0,2,2,2,0,12,12,17,,,,,,,,,,,,,,,,,,,,,,,,,158.4602062399848,159.45991609996418,159.44302349997452,None,1,1.7785072000115179,159.44302349997452,None,,,,,,,y,001,2021_Jan_08_2331,piloto1,2020.2.5,60.01529189404076,
1000,0.02,imagenes/Pizza.png,0.21192443516553439,None,0,2,2,2,0,13,13,31,,,,,,,,,,,,,,,,,,,,,,,,,160.25988156996317,161.25975039997138,161.25975039997138,None,1,1.041836099990178,161.25975039997138,None,,,,,,,y,001,2021_Jan_08_2331,piloto1,2020.2.5,60.01529189404076,
1000,0.02,imagenes/Kiwi.jpg,0.3929145850942286,None,0,2,2,2,0,14,14,8,,,,,,,,,,,,,,,,,,,,,,,,,161.3264763700019,162.3263573999866,162.3263573999866,None,1,1.226781299978029,162.3263573999866,None,,,,,,,y,001,2021_Jan_08_2331,piloto1,2020.2.5,60.01529189404076,
1000,0.02,imagenes/Croissant.jpg,0.5824748589948932,None,0,2,2,2,0,15,15,5,,,,,,,,,,,,,,,,,,,,,,,,,162.59307633995775,163.59303170000203,163.59303170000203,None,1,1.2780113000189885,163.59303170000203,None,,,,,,,y,001,2021_Jan_08_2331,piloto1,2020.2.5,60.01529189404076,
1000,0.02,imagenes/Alpinito.jpg,0.7416150880621702,None,0,2,2,2,0,16,16,0,,,,,,,,,,,,,,,,,,,,,,,,,163.94270247996317,None,164.90948659996502,None,1,1.1037562999990769,164.90948659996502,None,,,,,,,y,001,2021_Jan_08_2331,piloto1,2020.2.5,60.01529189404076,
1000,0.02,imagenes/Yogurt-alpina.jpg,0.5445152936222175,None,0,2,2,2,0,17,17,18,,,,,,,,,,,,,,,,,,,,,,,,,165.05942336995503,166.05955269996775,166.05955269996775,None,1,1.1719857000280172,166.05955269996775,None,,,,,,,y,001,2021_Jan_08_2331,piloto1,2020.2.5,60.01529189404076,
1000,0.02,imagenes/Almojabanas.png,0.6725051200713246,None,0,2,2,2,0,18,18,20,,,,,,,,,,,,,,,,,,,,,,,,,166.2758637399878,167.27616399998078,167.27616399998078,None,1,1.339754400018137,167.27616399998078,None,,,,,,,y,001,2021_Jan_08_2331,piloto1,2020.2.5,60.01529189404076,
1000,0.02,imagenes/Canelazo.png,0.6730479360767814,None,0,2,2,2,0,19,19,22,,,,,,,,,,,,,,,,,,,,,,,,,167.67603550996282,168.6759858999867,168.6759858999867,None,1,1.27391600003466,168.6759858999867,None,,,,,,,y,001,2021_Jan_08_2331,piloto1,2020.2.5,60.01529189404076,
1000,0.02,imagenes/Papas-pollo.jpg,0.08373485417902837,None,0,2,2,2,0,20,20,15,,,,,,,,,,,,,,,,,,,,,,,,,168.97628786998683,169.9761083999765,169.9761083999765,None,1,1.1597698999685235,169.9761083999765,None,,,,,,,y,001,2021_Jan_08_2331,piloto1,2020.2.5,60.01529189404076,
1000,0.02,imagenes/bon-bon-bun.jpg,0.7417452724056987,None,0,2,2,2,0,21,21,2,,,,,,,,,,,,,,,,,,,,,,,,,170.17575213997623,None,171.15975399996387,None,1,1.3356405000085942,171.15975399996387,None,,,,,,,y,001,2021_Jan_08_2331,piloto1,2020.2.5,60.01529189404076,
1000,0.02,imagenes/Papas-limon.jpg,0.5280798509093595,None,0,2,2,2,0,22,22,14,,,,,,,,,,,,,,,,,,,,,,,,,171.52579306999104,None,172.525936799997,None,1,1.1218016999773681,172.525936799997,None,,,,,,,y,001,2021_Jan_08_2331,piloto1,2020.2.5,60.01529189404076,
1000,0.02,imagenes/Nutella (1).jpg,0.8826531883338111,None,0,2,2,2,0,23,23,12,,,,,,,,,,,,,,,,,,,,,,,,,172.67596446998067,173.6757118999958,173.6757118999958,None,1,1.7892812000354752,173.6757118999958,None,,,,,,,y,001,2021_Jan_08_2331,piloto1,2020.2.5,60.01529189404076,
1000,0.02,imagenes/Papas picantes.jpg,0.524978898672612,None,0,2,2,2,0,24,24,27,,,,,,,,,,,,,,,,,,,,,,,,,174.4920829700015,None,175.47582309995778,None,1,1.3147601999808103,175.47582309995778,None,,,,,,,y,001,2021_Jan_08_2331,piloto1,2020.2.5,60.01529189404076,
1000,0.02,imagenes/Mango.jpeg,0.4341155418941499,None,0,2,2,2,0,25,25,10,,,,,,,,,,,,,,,,,,,,,,,,,175.82553006995585,176.82554849999724,176.82554849999724,None,1,1.1711649000062607,176.82554849999724,None,,,,,,,y,001,2021_Jan_08_2331,piloto1,2020.2.5,60.01529189404076,
1000,0.02,imagenes/Brownie.jpg,0.2838924074864093,None,0,2,2,2,0,26,26,3,,,,,,,,,,,,,,,,,,,,,,,,,177.0426481399685,178.04244329995709,178.04244329995709,None,1,1.0079426000011154,178.04244329995709,None,,,,,,,y,001,2021_Jan_08_2331,piloto1,2020.2.5,60.01529189404076,
1000,0.02,imagenes/Papas-naturales.jpg,0.37590629905521566,None,0,2,2,2,0,27,27,13,,,,,,,,,,,,,,,,,,,,,,,,,178.07561776998335,179.07552719995147,179.07552719995147,None,1,1.2204206000315025,179.07552719995147,None,,,,,,,y,001,2021_Jan_08_2331,piloto1,2020.2.5,60.01529189404076,
1000,0.02,imagenes/Rollo de queso.png,0.9201641182756888,None,0,2,2,2,0,28,28,33,,,,,,,,,,,,,,,,,,,,,,,,,179.34211663998428,None,180.3420206999872,None,1,1.441738300025463,180.3420206999872,None,,,,,,,y,001,2021_Jan_08_2331,piloto1,2020.2.5,60.01529189404076,
1000,0.02,imagenes/Pizzetas.png,0.3295951589873042,None,0,2,2,2,0,29,29,32,,,,,,,,,,,,,,,,,,,,,,,,,180.82543954000573,None,181.8254326999886,None,1,1.1775728999637067,181.8254326999886,None,,,,,,,y,001,2021_Jan_08_2331,piloto1,2020.2.5,60.01529189404076,
1000,0.02,imagenes/Muffin de banano.png,0.9610615059009696,None,0,2,2,2,0,30,30,25,,,,,,,,,,,,,,,,,,,,,,,,,182.05845100996666,183.0588099999586,183.0588099999586,None,1,1.2067557999980636,183.0588099999586,None,,,,,,,y,001,2021_Jan_08_2331,piloto1,2020.2.5,60.01529189404076,
1000,0.02,imagenes/Brocoli.jpg,0.24293074945529525,None,0,2,2,2,0,31,31,21,,,,,,,,,,,,,,,,,,,,,,,,,183.29171576998777,None,184.2751883000019,None,1,1.4293659999966621,184.2751883000019,None,,,,,,,y,001,2021_Jan_08_2331,piloto1,2020.2.5,60.01529189404076,
1000,0.02,imagenes/salchicha hojaldrada.jpg,0.7119773165481526,None,0,2,2,2,0,32,32,35,,,,,,,,,,,,,,,,,,,,,,,,,184.74201096997712,None,185.725166899967,None,1,1.0968175000161864,185.725166899967,None,,,,,,,y,001,2021_Jan_08_2331,piloto1,2020.2.5,60.01529189404076,
1000,0.02,imagenes/Pepinillos.png,0.0038966441241518046,None,0,2,2,2,0,33,33,28,,,,,,,,,,,,,,,,,,,,,,,,,185.87550023999063,186.8752863999689,186.85844599996926,None,1,1.433379199996125,186.85844599996926,None,,,,,,,y,001,2021_Jan_08_2331,piloto1,2020.2.5,60.01529189404076,
1000,0.02,imagenes/Chontaduro.png,0.8693553300418813,None,0,2,2,2,0,34,34,23,,,,,,,,,,,,,,,,,,,,,,,,,187.32524446999304,None,188.3258949999581,None,1,1.1551588000147603,188.3258949999581,None,,,,,,,y,001,2021_Jan_08_2331,piloto1,2020.2.5,60.01529189404076,
1000,0.02,imagenes/Rollos de canela.png,0.2610974409574519,None,0,2,2,2,0,35,35,34,,,,,,,,,,,,,,,,,,,,,,,,,188.52525543995432,None,189.5085826999857,None,1,1.3501157999853604,189.5085826999857,None,,,,,,,y,001,2021_Jan_08_2331,piloto1,2020.2.5,60.01529189404076,
1000,0.02,,,,0,2,2,2,,,,,,,,,,,,,,,,,,,,,,,,,,,,,,,,,,,,,,,,,,,y,001,2021_Jan_08_2331,piloto1,2020.2.5,60.01529189404076,
400,0.02,imagenes/Papas-pollo.jpg,0.08373485417902837,None,0,3,3,0,0,0,0,15,,,,,,,,,,,,,,,,,,,,,,,,,189.90840453995622,190.90849629999138,190.89154959999723,None,1,1.2648928000126034,190.89154959999723,None,,,,,,,y,001,2021_Jan_08_2331,piloto1,2020.2.5,60.01529189404076,
400,0.02,imagenes/Rollos de canela.png,0.2610974409574519,None,0,3,3,0,0,1,1,34,,,,,,,,,,,,,,,,,,,,,,,,,191.19170846995547,192.1918615999748,192.1918615999748,None,1,1.1196907000266947,192.1918615999748,None,,,,,,,y,001,2021_Jan_08_2331,piloto1,2020.2.5,60.01529189404076,
400,0.02,imagenes/Chontaduro.png,0.8693553300418813,None,0,3,3,0,0,2,2,23,,,,,,,,,,,,,,,,,,,,,,,,,192.3413344699831,193.34156109998003,193.34156109998003,None,1,1.3925424999906681,193.34156109998003,None,,,,,,,y,001,2021_Jan_08_2331,piloto1,2020.2.5,60.01529189404076,
400,0.02,imagenes/Galletas-festival.jpg,0.11306074364032936,None,0,3,3,0,0,3,3,7,,,,,,,,,,,,,,,,,,,,,,,,,193.75821906999334,194.7583692999906,194.7583692999906,None,1,1.2528151999576949,194.7583692999906,None,,,,,,,y,001,2021_Jan_08_2331,piloto1,2020.2.5,60.01529189404076,
400,0.02,imagenes/Brownie.jpg,0.2838924074864093,None,0,3,3,0,0,4,4,3,,,,,,,,,,,,,,,,,,,,,,,,,195.07483031000592,196.07503859995632,196.05824049998773,None,1,1.1842628000304103,196.05824049998773,None,,,,,,,y,001,2021_Jan_08_2331,piloto1,2020.2.5,60.01529189404076,
400,0.02,imagenes/Mango.jpeg,0.4341155418941499,None,0,3,3,0,0,5,5,10,,,,,,,,,,,,,,,,,,,,,,,,,196.2916657399968,197.29152049997356,197.27483839995693,None,1,1.2515710999723524,197.27483839995693,None,,,,,,,y,001,2021_Jan_08_2331,piloto1,2020.2.5,60.01529189404076,
400,0.02,imagenes/Uvas.jpg,0.4959291644143431,None,0,3,3,0,0,6,6,19,,,,,,,,,,,,,,,,,,,,,,,,,197.5747661400004,None,198.5579256999772,None,1,1.164755099976901,198.5579256999772,None,,,,,,,y,001,2021_Jan_08_2331,piloto1,2020.2.5,60.01529189404076,
400,0.02,imagenes/Pizzetas.png,0.3295951589873042,None,0,3,3,0,0,7,7,32,,,,,,,,,,,,,,,,,,,,,,,,,198.77468003999672,199.7747282999917,199.7747282999917,None,1,1.4083467000164092,199.7747282999917,None,,,,,,,y,001,2021_Jan_08_2331,piloto1,2020.2.5,60.01529189404076,
400,0.02,imagenes/Nutella (1).jpg,0.8826531883338111,None,0,3,3,0,0,8,8,12,,,,,,,,,,,,,,,,,,,,,,,,,200.2080508700048,201.20817409997107,201.20817409997107,None,1,1.423909899953287,201.20817409997107,None,,,,,,,y,001,2021_Jan_08_2331,piloto1,2020.2.5,60.01529189404076,
400,0.02,imagenes/Papas-naturales.jpg,0.37590629905521566,None,0,3,3,0,0,9,9,13,,,,,,,,,,,,,,,,,,,,,,,,,201.65796206998056,202.65851300000213,202.65851300000213,None,1,1.4550799999851733,202.65851300000213,None,,,,,,,y,001,2021_Jan_08_2331,piloto1,2020.2.5,60.01529189404076,
400,0.02,imagenes/Papas picantes.jpg,0.524978898672612,None,0,3,3,0,0,10,10,27,,,,,,,,,,,,,,,,,,,,,,,,,203.14115826996857,204.14117149997037,204.12498959997902,None,1,2.0149988000048324,204.12498959997902,None,,,,,,,y,001,2021_Jan_08_2331,piloto1,2020.2.5,60.01529189404076,
400,0.02,imagenes/Almojabanas.png,0.6725051200713246,None,0,3,3,0,0,11,11,20,,,,,,,,,,,,,,,,,,,,,,,,,205.19106643999692,206.19112229999155,206.19112229999155,None,1,1.426485000003595,206.19112229999155,None,,,,,,,y,001,2021_Jan_08_2331,piloto1,2020.2.5,60.01529189404076,
400,0.02,imagenes/Banano.jpeg,0.2267656716538785,None,0,3,3,0,0,12,12,1,,,,,,,,,,,,,,,,,,,,,,,,,206.6409170699946,None,207.64093019999564,None,1,1.321641099988483,207.64093019999564,None,,,,,,,y,001,2021_Jan_08_2331,piloto1,2020.2.5,60.01529189404076,
400,0.02,imagenes/Pepinillos.png,0.0038966441241518046,None,0,3,3,0,0,13,13,28,,,,,,,,,,,,,,,,,,,,,,,,,208.00730073996817,209.00788329995703,209.00788329995703,None,1,1.793082999996841,209.00788329995703,None,,,,,,,y,001,2021_Jan_08_2331,piloto1,2020.2.5,60.01529189404076,
400,0.02,imagenes/Leche-de-almendras.jpg,0.3886559457994673,None,0,3,3,0,0,14,14,9,,,,,,,,,,,,,,,,,,,,,,,,,209.9073198200087,None,210.89067110000178,None,1,1.4830717000295408,210.89067110000178,None,,,,,,,y,001,2021_Jan_08_2331,piloto1,2020.2.5,60.01529189404076,
400,0.02,imagenes/Chocoramo.jfif.jpg,0.7425528559884101,None,0,3,3,0,0,15,15,4,,,,,,,,,,,,,,,,,,,,,,,,,211.42406833996063,212.42412159999367,212.40760320000118,None,1,1.1788886000285856,212.40760320000118,None,,,,,,,y,001,2021_Jan_08_2331,piloto1,2020.2.5,60.01529189404076,
400,0.02,imagenes/Canelazo.png,0.6730479360767814,None,0,3,3,0,0,16,16,22,,,,,,,,,,,,,,,,,,,,,,,,,212.6572787099809,213.65735719999066,213.65735719999066,None,1,1.974422900006175,213.65735719999066,None,,,,,,,y,001,2021_Jan_08_2331,piloto1,2020.2.5,60.01529189404076,
400,0.02,imagenes/Alpinito.jpg,0.7416150880621702,None,0,3,3,0,0,17,17,0,,,,,,,,,,,,,,,,,,,,,,,,,214.67385643997693,215.67396019998705,215.67396019998705,None,1,1.2705649000126868,215.67396019998705,None,,,,,,,y,001,2021_Jan_08_2331,piloto1,2020.2.5,60.01529189404076,
400,0.02,imagenes/Popetas.jpg,0.9621625733302204,None,0,3,3,0,0,18,18,16,,,,,,,,,,,,,,,,,,,,,,,,,216.00709830998093,None,216.99055329995463,None,1,1.2327488000155427,216.99055329995463,None,,,,,,,y,001,2021_Jan_08_2331,piloto1,2020.2.5,60.01529189404076,
400,0.02,imagenes/Yogurt-alpina.jpg,0.5445152936222175,None,0,3,3,0,0,19,19,18,,,,,,,,,,,,,,,,,,,,,,,,,217.25743646997142,218.25737349997507,218.25737349997507,None,1,1.4086019999813288,218.25737349997507,None,,,,,,,y,001,2021_Jan_08_2331,piloto1,2020.2.5,60.01529189404076,
400,0.02,imagenes/Pescadito.png,0.7172825011486081,None,0,3,3,0,0,20,20,29,,,,,,,,,,,,,,,,,,,,,,,,,218.7069921399583,None,219.69028009998146,None,1,1.0994116999791004,219.69028009998146,None,,,,,,,y,001,2021_Jan_08_2331,piloto1,2020.2.5,60.01529189404076,
400,0.02,imagenes/Pizza.png,0.21192443516553439,None,0,3,3,0,0,21,21,31,,,,,,,,,,,,,,,,,,,,,,,,,219.82390546998357,220.82388829998672,220.82388829998672,None,1,1.7415440999902785,220.82388829998672,None,,,,,,,y,001,2021_Jan_08_2331,piloto1,2020.2.5,60.01529189404076,
400,0.02,imagenes/Rosquitas (1).jpg,0.024090340010977873,None,0,3,3,0,0,22,22,17,,,,,,,,,,,,,,,,,,,,,,,,,221.60691023999823,None,222.59031820000382,None,1,2.3476673000259325,222.59031820000382,None,,,,,,,y,001,2021_Jan_08_2331,piloto1,2020.2.5,60.01529189404076,
400,0.02,imagenes/Pandebono.png,0.8988574378129985,None,0,3,3,0,0,23,23,26,,,,,,,,,,,,,,,,,,,,,,,,,223.99016513999084,None,224.97365739999805,None,1,1.0513535999925807,224.97365739999805,None,,,,,,,y,001,2021_Jan_08_2331,piloto1,2020.2.5,60.01529189404076,
400,0.02,imagenes/Manzana.jpg,0.4048420327008191,None,0,3,3,0,0,24,24,11,,,,,,,,,,,,,,,,,,,,,,,,,225.07362343997227,None,226.07340850000037,None,1,1.3539718000101857,226.07340850000037,None,,,,,,,y,001,2021_Jan_08_2331,piloto1,2020.2.5,60.01529189404076,
400,0.02,imagenes/Rollo de queso.png,0.9201641182756888,None,0,3,3,0,0,25,25,33,,,,,,,,,,,,,,,,,,,,,,,,,226.47339993998173,227.47342719999142,227.45675789995585,None,1,1.2293235000106506,227.45675789995585,None,,,,,,,y,001,2021_Jan_08_2331,piloto1,2020.2.5,60.01529189404076,
400,0.02,imagenes/pistachos.jpg,0.7450869742741464,None,0,3,3,0,0,26,26,30,,,,,,,,,,,,,,,,,,,,,,,,,227.72336237000417,None,228.70672999997623,None,1,1.031740800011903,228.70672999997623,None,,,,,,,y,001,2021_Jan_08_2331,piloto1,2020.2.5,60.01529189404076,
400,0.02,imagenes/salchicha hojaldrada.jpg,0.7119773165481526,None,0,3,3,0,0,27,27,35,,,,,,,,,,,,,,,,,,,,,,,,,228.77339926998246,None,229.7567433999502,None,1,1.14634090004256,229.7567433999502,None,,,,,,,y,001,2021_Jan_08_2331,piloto1,2020.2.5,60.01529189404076,
400,0.02,imagenes/Galletas Tosh.jpg,0.9129693753280027,None,0,3,3,0,0,28,28,6,,,,,,,,,,,,,,,,,,,,,,,,,229.95656153999732,230.9565318999812,230.9565318999812,None,1,1.4926376000512391,230.9565318999812,None,,,,,,,y,001,2021_Jan_08_2331,piloto1,2020.2.5,60.01529189404076,
400,0.02,imagenes/Croissant.jpg,0.5824748589948932,None,0,3,3,0,0,29,29,5,,,,,,,,,,,,,,,,,,,,,,,,,231.48981783996567,232.4900850999984,232.4900850999984,None,1,1.670555000018794,232.4900850999984,None,,,,,,,y,001,2021_Jan_08_2331,piloto1,2020.2.5,60.01529189404076,
400,0.02,imagenes/Kiwi.jpg,0.3929145850942286,None,0,3,3,0,0,30,30,8,,,,,,,,,,,,,,,,,,,,,,,,,233.18973186998045,234.19010189996334,234.19010189996334,None,1,1.26075449999189,234.19010189996334,None,,,,,,,y,001,2021_Jan_08_2331,piloto1,2020.2.5,60.01529189404076,
400,0.02,imagenes/Papas-limon.jpg,0.5280798509093595,None,0,3,3,0,0,31,31,14,,,,,,,,,,,,,,,,,,,,,,,,,234.4731079699879,235.47285089996876,235.47285089996876,None,1,1.4053884000168182,235.47285089996876,None,,,,,,,y,001,2021_Jan_08_2331,piloto1,2020.2.5,60.01529189404076,
400,0.02,imagenes/bon-bon-bun.jpg,0.7417452724056987,None,0,3,3,0,0,32,32,2,,,,,,,,,,,,,,,,,,,,,,,,,235.92314154000485,236.922993199958,236.922993199958,None,1,1.274848600034602,236.922993199958,None,,,,,,,y,001,2021_Jan_08_2331,piloto1,2020.2.5,60.01529189404076,
400,0.02,imagenes/Muffin de banano.png,0.9610615059009696,None,0,3,3,0,0,33,33,25,,,,,,,,,,,,,,,,,,,,,,,,,237.25627390998997,238.2566929999739,238.2566929999739,None,1,1.2079329999978654,238.2566929999739,None,,,,,,,y,001,2021_Jan_08_2331,piloto1,2020.2.5,60.01529189404076,
400,0.02,imagenes/Brocoli.jpg,0.24293074945529525,None,0,3,3,0,0,34,34,21,,,,,,,,,,,,,,,,,,,,,,,,,238.48946466997148,None,239.47296159999678,None,1,1.6295943000004627,239.47296159999678,None,,,,,,,y,001,2021_Jan_08_2331,piloto1,2020.2.5,60.01529189404076,
400,0.02,imagenes/Coliflor.jpg,0.3640740491088985,None,0,3,3,0,0,35,35,24,,,,,,,,,,,,,,,,,,,,,,,,,240.13941476996405,241.13939179998124,241.13939179998124,None,1,1.708228500036057,241.13939179998124,None,,,,,,,y,001,2021_Jan_08_2331,piloto1,2020.2.5,60.01529189404076,
400,0.02,,,,0,3,3,0,,,,,,,,,,,,,,,,,,,,,,,,,,,,,,,,,,,,,,,,,,,y,001,2021_Jan_08_2331,piloto1,2020.2.5,60.01529189404076,
,,,,,,,,,,,,,,,,,,,,,,,,,,,,,,,,,,,,,,,,,,,,,241.87288280000212,None,243.6231319999788,None,244.42518649995327,None,,,,,,,
